Folder: Koutecky-Levich-for-ECH (part 12)

File: ZnPVAGAECH_09 03-20-22-ZnGAPVA ECH-1600 rpm at -0_9V vs RHE RDE2_02_CA_C05(1).mpt
EC-Lab ASCII FILE
Nb header lines : 74

Chronoamperometry / Chronocoulometry

Run on channel : 5 (SN 6729)
User :
CE vs. WE compliance from -10 V to 10 V
Electrode connection : standard
Potential control : Ewe
Ewe ctrl range : min = -2.50 V, max = 2.50 V
Safety Limits :
	Do not start on E overload
Acquisition started on : 03/20/2022 13:24:21.393
Technique started on : 03/20/2022 13:24:26.541
Loaded Setting File :  NONE
Saved on :
	File : 03-20-22-ZnGAPVA  ECH-1600 rpm at -0_8V vs RHE RDE2_02_CA_C05.mpr
	Directory : \\research-scb.egr.msu.edu\research-scb\Mindy\Koutecky Levich\Zn GA PVA 001\ECH\03-20-22\
	Host : 35.9.136.210
Device : VSP (SN 0012)
Address : 35.9.137.65
EC-Lab for windows v11.43 (software)
Internet server v11.40 (firmware)
Command interpretor v11.40 (firmware)
Electrode material :
Initial state :
Electrolyte :
Comments :
Electrode surface area : 0.001 cm²
Characteristic mass : 0.001 g
Equivalent Weight : 0.000 g/eq.
Density : 0.000 g/cm3
Volume (V) : 0.001 cm³
Cycle Definition : Charge/Discharge alternance
Ei (V)              -1.000
vs.                 Ref
ti (h:m:s)          0:30:0.0000
Imax                pass
unit Imax           mA
Imin                pass
unit Imin           mA
dQM                 0.000
unit dQM            mA.h
record              <I>
dI                  5.000
unit dI             µA
dQ                  0.000
unit dQ             mA.h
dt (s)              0.1000
dta (s)             0.1000
E range min (V)     -2.500
E range max (V)     2.500
I Range             Auto
I Range min         Unset
I Range max         Unset
I Range init        Unset
Bandwidth           5
goto Ns'            0
nc cycles           0

Modify on : 03/20/2022 13:24
Electrode surface area : 0.196 cm²

Modify on : 03/20/2022 13:25
Ei (V)              -0.600

Modify on : 03/20/2022 13:31
Ei (V)              -0.700

Modify on : 03/20/2022 13:31
Ei (V)              -0.900

mode	ox/red	error	control changes	Ns changes	counter inc.	Ns	time/s	control/V	Ewe/V	<I>/mA	dQ/C	(Q-Qo)/C	I Range	Q charge/discharge/mA.h	half cycle	Q discharge/mA.h	Q charge/mA.h	Capacity/mA.h	Efficiency/%	cycle number	P/W
2	0	0	0	0	0	0	5.1484	-1.00004	-1.00077	-10.419	-0.000168703	-0.000168703	11	-4.6862e-05	0	4.6862e-05	0.000000000000000E+000	4.6862e-05	0.0000000E+000	0.000000000000000E+000	0.010427
2	0	0	0	0	0	0	11.7484	-1.00004	-1.00023	-5.72654	-0.0469793	-0.0469793	11	-0.0130498	0	0.0130498	0.000000000000000E+000	0.0130498	0.0000000E+000	0.000000000000000E+000	0.00572787
2	0	0	0	0	0	0	18.3484	-1.00004	-1.00042	-6.75678	-0.0887951	-0.0887951	11	-0.0246653	0	0.0246653	0.000000000000000E+000	0.0246653	0.0000000E+000	0.000000000000000E+000	0.00675964
2	0	0	0	0	0	0	24.9484	-1.00004	-1.00029	-6.89008	-0.133888	-0.133888	11	-0.0371911	0	0.0371911	0.000000000000000E+000	0.0371911	0.0000000E+000	0.000000000000000E+000	0.00689207
2	0	0	0	0	0	0	31.5484	-1.00004	-1.00075	-7.08463	-0.179992	-0.179992	11	-0.0499978	0	0.0499978	0.000000000000000E+000	0.0499978	0.0000000E+000	0.000000000000000E+000	0.00708992
2	0	0	0	0	0	0	38.1484	-1.00004	-1.00079	-7.23262	-0.227206	-0.227206	11	-0.0631128	0	0.0631128	0.000000000000000E+000	0.0631128	0.0000000E+000	0.000000000000000E+000	0.0072383
2	0	0	0	0	0	0	44.7484	-1.00004	-0.999907	-7.3393	-0.275217	-0.275217	11	-0.0764491	0	0.0764491	0.000000000000000E+000	0.0764491	0.0000000E+000	0.000000000000000E+000	0.00733862
2	0	0	0	0	0	0	51.3484	-1.00004	-1.00023	-7.46867	-0.324129	-0.324129	11	-0.0900359	0	0.0900359	0.000000000000000E+000	0.0900359	0.0000000E+000	0.000000000000000E+000	0.0074704
2	0	0	0	0	0	0	57.9484	-1.00004	-1.00048	-7.55607	-0.373614	-0.373614	11	-0.103782	0	0.103782	0.000000000000000E+000	0.103782	0.0000000E+000	0.000000000000000E+000	0.0075597
2	0	0	0	0	0	0	64.5484	-1.00004	-1.00042	-7.67746	-0.423985	-0.423985	11	-0.117773	0	0.117773	0.000000000000000E+000	0.117773	0.0000000E+000	0.000000000000000E+000	0.0076807
2	0	0	1	0	0	0	71.1484	-0.599957	-0.600461	-2.72525	-0.442479	-0.442479	11	-0.122911	0	0.122911	0.000000000000000E+000	0.122911	0.0000000E+000	0.000000000000000E+000	0.0016364
2	0	0	1	0	0	0	77.7484	-0.599957	-0.600346	-2.76559	-0.460656	-0.460656	11	-0.12796	0	0.12796	0.000000000000000E+000	0.12796	0.0000000E+000	0.000000000000000E+000	0.00166031
2	0	0	1	0	0	0	84.3484	-0.599957	-0.600212	-2.74299	-0.478844	-0.478844	11	-0.133012	0	0.133012	0.000000000000000E+000	0.133012	0.0000000E+000	0.000000000000000E+000	0.00164638
2	0	0	1	0	0	0	90.9484	-0.599957	-0.60027	-2.72026	-0.49687	-0.49687	11	-0.138019	0	0.138019	0.000000000000000E+000	0.138019	0.0000000E+000	0.000000000000000E+000	0.00163289
2	0	0	1	0	0	0	97.5484	-0.599957	-0.600155	-2.54861	-0.514385	-0.514385	11	-0.142885	0	0.142885	0.000000000000000E+000	0.142885	0.0000000E+000	0.000000000000000E+000	0.00152956
2	0	0	1	0	0	0	104.148	-0.599957	-0.600174	-2.49466	-0.530995	-0.530995	11	-0.147499	0	0.147499	0.000000000000000E+000	0.147499	0.0000000E+000	0.000000000000000E+000	0.00149723
2	0	0	1	0	0	0	110.748	-0.599957	-0.600537	-2.45971	-0.547332	-0.547332	11	-0.152037	0	0.152037	0.000000000000000E+000	0.152037	0.0000000E+000	0.000000000000000E+000	0.00147715
2	0	0	1	0	0	0	117.348	-0.599957	-0.600308	-2.34328	-0.563326	-0.563326	11	-0.15648	0	0.15648	0.000000000000000E+000	0.15648	0.0000000E+000	0.000000000000000E+000	0.00140669
2	0	0	1	0	0	0	123.948	-0.599957	-0.600308	-2.28986	-0.5786	-0.5786	11	-0.160722	0	0.160722	0.000000000000000E+000	0.160722	0.0000000E+000	0.000000000000000E+000	0.00137462
2	0	0	1	0	0	0	130.548	-0.599957	-0.600365	-2.26123	-0.593629	-0.593629	11	-0.164897	0	0.164897	0.000000000000000E+000	0.164897	0.0000000E+000	0.000000000000000E+000	0.00135757
2	0	0	1	0	0	0	137.148	-0.599957	-0.600346	-2.24135	-0.608491	-0.608491	11	-0.169025	0	0.169025	0.000000000000000E+000	0.169025	0.0000000E+000	0.000000000000000E+000	0.00134559
2	0	0	1	0	0	0	143.748	-0.599957	-0.60027	-2.04257	-0.622674	-0.622674	11	-0.172965	0	0.172965	0.000000000000000E+000	0.172965	0.0000000E+000	0.000000000000000E+000	0.00122609
2	0	0	1	0	0	0	150.348	-0.599957	-0.600346	-1.98699	-0.635955	-0.635955	11	-0.176654	0	0.176654	0.000000000000000E+000	0.176654	0.0000000E+000	0.000000000000000E+000	0.00119288
2	0	0	1	0	0	0	156.948	-0.599957	-0.60027	-1.96665	-0.648999	-0.648999	11	-0.180278	0	0.180278	0.000000000000000E+000	0.180278	0.0000000E+000	0.000000000000000E+000	0.00118052
2	0	0	1	0	0	0	163.548	-0.599957	-0.600289	-1.90646	-0.661876	-0.661876	11	-0.183855	0	0.183855	0.000000000000000E+000	0.183855	0.0000000E+000	0.000000000000000E+000	0.00114442
2	0	0	1	0	0	0	170.148	-0.599957	-0.600308	-1.80578	-0.674001	-0.674001	11	-0.187222	0	0.187222	0.000000000000000E+000	0.187222	0.0000000E+000	0.000000000000000E+000	0.00108403
2	0	0	1	0	0	0	176.748	-0.599957	-0.60048	-1.78167	-0.685824	-0.685824	11	-0.190507	0	0.190507	0.000000000000000E+000	0.190507	0.0000000E+000	0.000000000000000E+000	0.00106986
2	0	0	1	0	0	0	183.348	-0.599957	-0.600289	-1.75796	-0.697505	-0.697505	11	-0.193751	0	0.193751	0.000000000000000E+000	0.193751	0.0000000E+000	0.000000000000000E+000	0.00105528
2	0	0	1	0	0	0	189.948	-0.599957	-0.600289	-1.62237	-0.708504	-0.708504	11	-0.196807	0	0.196807	0.000000000000000E+000	0.196807	0.0000000E+000	0.000000000000000E+000	0.000973888
[...]
2	0	0	1	0	0	0	255.948	-0.599957	-0.600308	-1.49176	-0.807418	-0.807418	11	-0.224283	0	0.224283	0.000000000000000E+000	0.224283	0.0000000E+000	0.000000000000000E+000	0.000895513
2	0	0	1	0	0	0	262.548	-0.599957	-0.600365	-1.56474	-0.817328	-0.817328	11	-0.227036	0	0.227036	0.000000000000000E+000	0.227036	0.0000000E+000	0.000000000000000E+000	0.000939412
2	0	0	1	0	0	0	269.148	-0.599957	-0.600251	-1.59912	-0.827841	-0.827841	11	-0.229956	0	0.229956	0.000000000000000E+000	0.229956	0.0000000E+000	0.000000000000000E+000	0.000959873
2	0	0	1	0	0	0	275.748	-0.599957	-0.600308	-1.60207	-0.838404	-0.838404	11	-0.23289	0	0.23289	0.000000000000000E+000	0.23289	0.0000000E+000	0.000000000000000E+000	0.000961738
2	0	0	1	0	0	0	282.348	-0.599957	-0.600499	-1.61101	-0.848952	-0.848952	11	-0.23582	0	0.23582	0.000000000000000E+000	0.23582	0.0000000E+000	0.000000000000000E+000	0.000967408
2	0	0	1	0	0	0	288.948	-0.599957	-0.600231	-1.70787	-0.86006	-0.86006	11	-0.238905	0	0.238905	0.000000000000000E+000	0.238905	0.0000000E+000	0.000000000000000E+000	0.00102512
2	0	0	1	0	0	0	295.548	-0.599957	-0.600251	-1.70285	-0.871322	-0.871322	11	-0.242034	0	0.242034	0.000000000000000E+000	0.242034	0.0000000E+000	0.000000000000000E+000	0.00102214
2	0	0	1	0	0	0	302.148	-0.599957	-0.600422	-1.70052	-0.88257	-0.88257	11	-0.245158	0	0.245158	0.000000000000000E+000	0.245158	0.0000000E+000	0.000000000000000E+000	0.00102103
2	0	0	1	0	0	0	308.748	-0.599957	-0.600231	-1.88679	-0.894477	-0.894477	11	-0.248466	0	0.248466	0.000000000000000E+000	0.248466	0.0000000E+000	0.000000000000000E+000	0.00113251
2	0	0	1	0	0	0	315.348	-0.599957	-0.600289	-1.8965	-0.906982	-0.906982	11	-0.25194	0	0.25194	0.000000000000000E+000	0.25194	0.0000000E+000	0.000000000000000E+000	0.00113845
2	0	0	1	0	0	0	321.948	-0.599957	-0.600346	-1.89649	-0.919502	-0.919502	11	-0.255417	0	0.255417	0.000000000000000E+000	0.255417	0.0000000E+000	0.000000000000000E+000	0.00113855
2	0	0	1	0	0	0	328.548	-0.599957	-0.60048	-1.89157	-0.932001	-0.932001	11	-0.258889	0	0.258889	0.000000000000000E+000	0.258889	0.0000000E+000	0.000000000000000E+000	0.00113585
2	0	0	1	0	0	0	335.148	-0.599957	-0.600327	-1.99416	-0.944967	-0.944967	11	-0.262491	0	0.262491	0.000000000000000E+000	0.262491	0.0000000E+000	0.000000000000000E+000	0.00119715
2	0	0	1	0	0	0	341.748	-0.599957	-0.600289	-1.99356	-0.958136	-0.958136	11	-0.266149	0	0.266149	0.000000000000000E+000	0.266149	0.0000000E+000	0.000000000000000E+000	0.00119671
2	0	0	1	0	0	0	348.348	-0.599957	-0.600117	-1.98916	-0.971282	-0.971282	11	-0.2698	0	0.2698	0.000000000000000E+000	0.2698	0.0000000E+000	0.000000000000000E+000	0.00119373
2	0	0	1	0	0	0	354.948	-0.599957	-0.600289	-2.14021	-0.984866	-0.984866	11	-0.273574	0	0.273574	0.000000000000000E+000	0.273574	0.0000000E+000	0.000000000000000E+000	0.00128474
2	0	0	1	0	0	0	361.548	-0.599957	-0.600594	-2.14103	-0.999011	-0.999011	11	-0.277503	0	0.277503	0.000000000000000E+000	0.277503	0.0000000E+000	0.000000000000000E+000	0.00128589
2	0	0	1	0	0	0	368.148	-0.599957	-0.60027	-2.13493	-1.01312	-1.01312	11	-0.281423	0	0.281423	0.000000000000000E+000	0.281423	0.0000000E+000	0.000000000000000E+000	0.00128153
2	0	0	1	0	0	0	374.748	-0.599957	-0.600346	-2.1236	-1.02718	-1.02718	11	-0.285327	0	0.285327	0.000000000000000E+000	0.285327	0.0000000E+000	0.000000000000000E+000	0.0012749
2	0	0	1	0	0	0	377.378	-0.599957	-0.600327	-2.12042	-1.03276	-1.03276	11	-0.286877	0	0.286877	0.000000000000000E+000	0.286877	0.0000000E+000	0.000000000000000E+000	0.00127295

File: ZnPVAGAECH_09 03-20-22-ZnGAPVA ECH-1600 rpm at -0_9V vs RHE RDE3_03_CA_C05(1).mpt
EC-Lab ASCII FILE
Nb header lines : 68

Chronoamperometry / Chronocoulometry

Run on channel : 5 (SN 6729)
User :
CE vs. WE compliance from -10 V to 10 V
Electrode connection : standard
Potential control : Ewe
Ewe ctrl range : min = -2.50 V, max = 2.50 V
Safety Limits :
	Do not start on E overload
Acquisition started on : 03/20/2022 13:48:04.552
Technique started on : 03/20/2022 13:54:04.181
Loaded Setting File :  NONE
Saved on :
	File : 03-20-22-ZnGAPVA  ECH-1600 rpm at -0_8V vs RHE RDE3_03_CA_C05.mpr
	Directory : \\research-scb.egr.msu.edu\research-scb\Mindy\Koutecky Levich\Zn GA PVA 001\ECH\03-20-22\
	Host : 35.9.136.210
Device : VSP (SN 0012)
Address : 35.9.137.65
EC-Lab for windows v11.43 (software)
Internet server v11.40 (firmware)
Command interpretor v11.40 (firmware)
Electrode material :
Initial state :
Electrolyte :
Comments :
Electrode surface area : 0.196 cm²
Characteristic mass : 0.001 g
Equivalent Weight : 0.000 g/eq.
Density : 0.000 g/cm3
Volume (V) : 0.001 cm³
Cycle Definition : Charge/Discharge alternance
Ei (V)              -0.900
vs.                 Ref
ti (h:m:s)          0:30:0.0000
Imax                pass
unit Imax           mA
Imin                pass
unit Imin           mA
dQM                 0.000
unit dQM            mA.h
record              <I>
dI                  5.000
unit dI             µA
dQ                  0.000
unit dQ             mA.h
dt (s)              0.1000
dta (s)             0.1000
E range min (V)     -2.500
E range max (V)     2.500
I Range             Auto
I Range min         Unset
I Range max         Unset
I Range init        Unset
Bandwidth           5
goto Ns'            0
nc cycles           0

Modify on : 03/20/2022 13:53
Ei (V)              -0.600

Modify on : 03/20/2022 13:54
Ei (V)              -0.650

mode	ox/red	error	control changes	Ns changes	counter inc.	Ns	time/s	control/V	Ewe/V	<I>/mA	dQ/C	(Q-Qo)/C	I Range	Q charge/discharge/mA.h	half cycle	Q discharge/mA.h	Q charge/mA.h	Capacity/mA.h	Efficiency/%	cycle number	P/W
2	0	0	0	0	0	0	359.629	-0.599957	-0.600117	-2.02872	-0.000202872	-0.000202872	11	-5.63534e-05	0	5.63534e-05	0.000000000000000E+000	5.63534e-05	0.0000000E+000	0.000000000000000E+000	0.00121747
2	0	0	0	0	0	0	366.129	-0.599957	-0.600346	-2.37996	-0.0154548	-0.0154548	11	-0.00429301	0	0.00429301	0.000000000000000E+000	0.00429301	0.0000000E+000	0.000000000000000E+000	0.0014288
2	0	0	0	0	0	0	372.629	-0.599957	-0.600461	-2.37877	-0.0309293	-0.0309293	11	-0.00859148	0	0.00859148	0.000000000000000E+000	0.00859148	0.0000000E+000	0.000000000000000E+000	0.00142836
2	0	0	0	0	0	0	379.129	-0.599957	-0.600308	-2.36305	-0.0463444	-0.0463444	11	-0.0128735	0	0.0128735	0.000000000000000E+000	0.0128735	0.0000000E+000	0.000000000000000E+000	0.00141856
2	0	0	1	0	0	0	385.629	-0.64998	-0.650403	-2.85112	-0.0647579	-0.0647579	11	-0.0179883	0	0.0179883	0.000000000000000E+000	0.0179883	0.0000000E+000	0.000000000000000E+000	0.00185438
2	0	0	1	0	0	0	392.129	-0.64998	-0.650384	-2.82582	-0.0831944	-0.0831944	11	-0.0231096	0	0.0231096	0.000000000000000E+000	0.0231096	0.0000000E+000	0.000000000000000E+000	0.00183787
2	0	0	1	0	0	0	398.629	-0.64998	-0.650632	-2.81147	-0.101518	-0.101518	11	-0.0281993	0	0.0281993	0.000000000000000E+000	0.0281993	0.0000000E+000	0.000000000000000E+000	0.00182923
2	0	0	1	0	0	0	405.129	-0.64998	-0.650174	-2.79151	-0.119717	-0.119717	11	-0.0332547	0	0.0332547	0.000000000000000E+000	0.0332547	0.0000000E+000	0.000000000000000E+000	0.00181497
2	0	0	1	0	0	0	411.629	-0.64998	-0.650346	-2.77255	-0.137806	-0.137806	11	-0.0382795	0	0.0382795	0.000000000000000E+000	0.0382795	0.0000000E+000	0.000000000000000E+000	0.00180312
2	0	0	1	0	0	0	418.129	-0.64998	-0.650461	-2.75427	-0.155771	-0.155771	11	-0.0432696	0	0.0432696	0.000000000000000E+000	0.0432696	0.0000000E+000	0.000000000000000E+000	0.00179155
2	0	0	1	0	0	0	424.629	-0.64998	-0.650346	-2.52469	-0.17342	-0.17342	11	-0.0481722	0	0.0481722	0.000000000000000E+000	0.0481722	0.0000000E+000	0.000000000000000E+000	0.00164192
2	0	0	1	0	0	0	431.129	-0.64998	-0.650346	-2.42459	-0.189408	-0.189408	11	-0.0526134	0	0.0526134	0.000000000000000E+000	0.0526134	0.0000000E+000	0.000000000000000E+000	0.00157682
2	0	0	1	0	0	0	437.629	-0.64998	-0.650212	-2.39941	-0.205078	-0.205078	11	-0.0569661	0	0.0569661	0.000000000000000E+000	0.0569661	0.0000000E+000	0.000000000000000E+000	0.00156012
2	0	0	1	0	0	0	444.129	-0.64998	-0.650575	-2.38164	-0.220613	-0.220613	11	-0.0612814	0	0.0612814	0.000000000000000E+000	0.0612814	0.0000000E+000	0.000000000000000E+000	0.00154944
2	0	0	1	0	0	0	450.629	-0.64998	-0.650346	-2.36709	-0.236036	-0.236036	11	-0.0655656	0	0.0655656	0.000000000000000E+000	0.0655656	0.0000000E+000	0.000000000000000E+000	0.00153943
2	0	0	1	0	0	0	457.129	-0.64998	-0.650461	-2.35238	-0.25137	-0.25137	11	-0.0698249	0	0.0698249	0.000000000000000E+000	0.0698249	0.0000000E+000	0.000000000000000E+000	0.00153013
2	0	0	1	0	0	0	463.629	-0.64998	-0.650346	-2.33926	-0.266616	-0.266616	11	-0.0740601	0	0.0740601	0.000000000000000E+000	0.0740601	0.0000000E+000	0.000000000000000E+000	0.00152133
2	0	0	1	0	0	0	470.129	-0.64998	-0.650422	-2.17246	-0.281306	-0.281306	11	-0.0781407	0	0.0781407	0.000000000000000E+000	0.0781407	0.0000000E+000	0.000000000000000E+000	0.00141302
2	0	0	1	0	0	0	476.629	-0.64998	-0.650461	-2.1361	-0.295282	-0.295282	11	-0.0820227	0	0.0820227	0.000000000000000E+000	0.0820227	0.0000000E+000	0.000000000000000E+000	0.00138945
2	0	0	1	0	0	0	483.129	-0.64998	-0.650155	-2.13547	-0.309174	-0.309174	11	-0.0858818	0	0.0858818	0.000000000000000E+000	0.0858818	0.0000000E+000	0.000000000000000E+000	0.00138838
2	0	0	1	0	0	0	489.629	-0.64998	-0.650499	-1.94144	-0.322761	-0.322761	11	-0.0896559	0	0.0896559	0.000000000000000E+000	0.0896559	0.0000000E+000	0.000000000000000E+000	0.0012629
2	0	0	1	0	0	0	496.129	-0.64998	-0.650365	-1.83334	-0.334911	-0.334911	11	-0.0930308	0	0.0930308	0.000000000000000E+000	0.0930308	0.0000000E+000	0.000000000000000E+000	0.00119234
2	0	0	1	0	0	0	502.629	-0.64998	-0.650346	-1.80788	-0.346732	-0.346732	11	-0.0963145	0	0.0963145	0.000000000000000E+000	0.0963145	0.0000000E+000	0.000000000000000E+000	0.00117575
2	0	0	1	0	0	0	509.129	-0.64998	-0.650384	-1.78912	-0.35842	-0.35842	11	-0.099561	0	0.099561	0.000000000000000E+000	0.099561	0.0000000E+000	0.000000000000000E+000	0.00116362
2	0	0	1	0	0	0	515.629	-0.64998	-0.650289	-1.74626	-0.370013	-0.370013	11	-0.102781	0	0.102781	0.000000000000000E+000	0.102781	0.0000000E+000	0.000000000000000E+000	0.00113558
2	0	0	1	0	0	0	522.129	-0.64998	-0.650499	-1.62741	-0.380822	-0.380822	11	-0.105784	0	0.105784	0.000000000000000E+000	0.105784	0.0000000E+000	0.000000000000000E+000	0.00105863
2	0	0	1	0	0	0	528.629	-0.64998	-0.650441	-1.60163	-0.391304	-0.391304	11	-0.108695	0	0.108695	0.000000000000000E+000	0.108695	0.0000000E+000	0.000000000000000E+000	0.00104176
2	0	0	1	0	0	0	535.129	-0.64998	-0.650346	-1.58725	-0.401671	-0.401671	11	-0.111575	0	0.111575	0.000000000000000E+000	0.111575	0.0000000E+000	0.000000000000000E+000	0.00103226
2	0	0	1	0	0	0	541.629	-0.64998	-0.65048	-1.5823	-0.411983	-0.411983	11	-0.11444	0	0.11444	0.000000000000000E+000	0.11444	0.0000000E+000	0.000000000000000E+000	0.00102926
[...]
2	0	0	1	0	0	0	600.129	-0.64998	-0.650422	-1.34413	-0.490815	-0.490815	11	-0.136338	0	0.136338	0.000000000000000E+000	0.136338	0.0000000E+000	0.000000000000000E+000	0.000874254
2	0	0	1	0	0	0	606.629	-0.64998	-0.650308	-1.50168	-0.500048	-0.500048	11	-0.138902	0	0.138902	0.000000000000000E+000	0.138902	0.0000000E+000	0.000000000000000E+000	0.000976554
2	0	0	1	0	0	0	613.129	-0.64998	-0.650441	-1.51966	-0.509891	-0.509891	11	-0.141637	0	0.141637	0.000000000000000E+000	0.141637	0.0000000E+000	0.000000000000000E+000	0.000988449
2	0	0	1	0	0	0	619.629	-0.64998	-0.650327	-1.51773	-0.519738	-0.519738	11	-0.144372	0	0.144372	0.000000000000000E+000	0.144372	0.0000000E+000	0.000000000000000E+000	0.00098702
2	0	0	1	0	0	0	626.129	-0.64998	-0.650365	-1.52157	-0.529651	-0.529651	11	-0.147125	0	0.147125	0.000000000000000E+000	0.147125	0.0000000E+000	0.000000000000000E+000	0.000989576
2	0	0	1	0	0	0	632.629	-0.64998	-0.65027	-1.51556	-0.539521	-0.539521	11	-0.149867	0	0.149867	0.000000000000000E+000	0.149867	0.0000000E+000	0.000000000000000E+000	0.000985524
2	0	0	1	0	0	0	639.129	-0.64998	-0.650441	-1.66631	-0.550087	-0.550087	11	-0.152802	0	0.152802	0.000000000000000E+000	0.152802	0.0000000E+000	0.000000000000000E+000	0.00108383
2	0	0	1	0	0	0	645.629	-0.64998	-0.650327	-1.67658	-0.560973	-0.560973	11	-0.155826	0	0.155826	0.000000000000000E+000	0.155826	0.0000000E+000	0.000000000000000E+000	0.00109033
2	0	0	1	0	0	0	652.129	-0.64998	-0.65048	-1.67627	-0.571858	-0.571858	11	-0.158849	0	0.158849	0.000000000000000E+000	0.158849	0.0000000E+000	0.000000000000000E+000	0.00109038
2	0	0	1	0	0	0	658.629	-0.64998	-0.650556	-1.94245	-0.583199	-0.583199	11	-0.162	0	0.162	0.000000000000000E+000	0.162	0.0000000E+000	0.000000000000000E+000	0.00126367
2	0	0	1	0	0	0	665.129	-0.64998	-0.650441	-2.0144	-0.59616	-0.59616	11	-0.1656	0	0.1656	0.000000000000000E+000	0.1656	0.0000000E+000	0.000000000000000E+000	0.00131025
2	0	0	1	0	0	0	671.629	-0.64998	-0.650384	-2.0173	-0.609276	-0.609276	11	-0.169243	0	0.169243	0.000000000000000E+000	0.169243	0.0000000E+000	0.000000000000000E+000	0.00131202
2	0	0	1	0	0	0	678.129	-0.64998	-0.650289	-2.02109	-0.622382	-0.622382	11	-0.172884	0	0.172884	0.000000000000000E+000	0.172884	0.0000000E+000	0.000000000000000E+000	0.00131429
2	0	0	1	0	0	0	684.629	-0.64998	-0.65048	-2.18753	-0.636374	-0.636374	11	-0.176771	0	0.176771	0.000000000000000E+000	0.176771	0.0000000E+000	0.000000000000000E+000	0.00142294
2	0	0	1	0	0	0	691.129	-0.64998	-0.650365	-2.19193	-0.650619	-0.650619	11	-0.180727	0	0.180727	0.000000000000000E+000	0.180727	0.0000000E+000	0.000000000000000E+000	0.00142555
2	0	0	1	0	0	0	697.629	-0.64998	-0.650461	-2.19487	-0.664879	-0.664879	11	-0.184689	0	0.184689	0.000000000000000E+000	0.184689	0.0000000E+000	0.000000000000000E+000	0.00142767
2	0	0	1	0	0	0	704.129	-0.64998	-0.650365	-2.50196	-0.680451	-0.680451	11	-0.189014	0	0.189014	0.000000000000000E+000	0.189014	0.0000000E+000	0.000000000000000E+000	0.00162719
2	0	0	1	0	0	0	710.629	-0.64998	-0.650422	-2.51942	-0.696782	-0.696782	11	-0.193551	0	0.193551	0.000000000000000E+000	0.193551	0.0000000E+000	0.000000000000000E+000	0.00163869
2	0	0	1	0	0	0	717.129	-0.64998	-0.650403	-2.51921	-0.713173	-0.713173	11	-0.198104	0	0.198104	0.000000000000000E+000	0.198104	0.0000000E+000	0.000000000000000E+000	0.00163851
2	0	0	1	0	0	0	723.629	-0.64998	-0.650403	-2.51733	-0.729539	-0.729539	11	-0.20265	0	0.20265	0.000000000000000E+000	0.20265	0.0000000E+000	0.000000000000000E+000	0.00163728
2	0	0	1	0	0	0	728.08	-0.64998	-0.650251	-2.51107	-0.740728	-0.740728	11	-0.205758	0	0.205758	0.000000000000000E+000	0.205758	0.0000000E+000	0.000000000000000E+000	0.00163283