Folder: Koutecky-Levich-for-ECH (part 3)

File: ZnPVAECH_07 RDE 2 ECH 1600 rpm K-L.mpt
EC-Lab ASCII FILE
Nb header lines : 63

Chronoamperometry / Chronocoulometry

Run on channel : 5 (SN 6729)
User :
CE vs. WE compliance from -10 V to 10 V
Electrode connection : standard
Potential control : Ewe
Ewe ctrl range : min = -2.50 V, max = 2.50 V
Safety Limits :
	Do not start on E overload
Acquisition started on : 04/04/2022 13:39:42.231
Technique started on : 04/04/2022 13:39:47.379
Loaded Setting File :  NONE
Saved on :
	File : 04-22-22-Zn PVA ECH 1600 rpm K-L RDE2_02_CA_C05.mpr
	Directory : \\research-scb.egr.msu.edu\research-scb\Mindy\Koutecky Levich\Zn PVA\ECH\04-04-22\
	Host : 35.9.136.210
Device : VSP (SN 0012)
Address : 35.9.137.65
EC-Lab for windows v11.43 (software)
Internet server v11.40 (firmware)
Command interpretor v11.40 (firmware)
Electrode material : Au/Pd
Initial state :
Electrolyte : NaCl (0.2M)
Comments : Fe(CN)63-/Fe(CN)64- 5.10-3 M
Reference electrode : SCE Saturated Calomel Electrode (0.241 V)
Electrode surface area : 0.196 cm²
Characteristic mass : 0.001 g
Equivalent Weight : 0.000 g/eq.
Density : 0.000 g/cm3
Volume (V) : 0.001 cm³
Cycle Definition : Charge/Discharge alternance
Ei (V)              -1.000
vs.                 Ref
ti (h:m:s)          0:10:0.0000
Imax                pass
unit Imax           mA
Imin                pass
unit Imin           mA
dQM                 0.000
unit dQM            mA.h
record              <I>
dI                  5.000
unit dI             µA
dQ                  0.000
unit dQ             mA.h
dt (s)              0.1000
dta (s)             0.1000
E range min (V)     -2.500
E range max (V)     2.500
I Range             Auto
I Range min         Unset
I Range max         Unset
I Range init        Unset
Bandwidth           5
goto Ns'            0
nc cycles           0

mode	ox/red	error	control changes	Ns changes	counter inc.	Ns	time/s	control/V	Ewe/V	<I>/mA	dQ/C	(Q-Qo)/C	I Range	Q charge/discharge/mA.h	half cycle	Q discharge/mA.h	Q charge/mA.h	Capacity/mA.h	Efficiency/%	cycle number	P/W
2	0	0	0	0	0	0	5.1484	-1.00001	-1.00048	-5.28568	-0.000126588	-0.000126588	11	-3.51635e-05	0	3.51635e-05	0.000000000000000E+000	3.51635e-05	0.0000000E+000	0.000000000000000E+000	0.0052882
2	0	0	0	0	0	0	8.8484	-1.00001	-1.00034	-1.64609	-0.00753753	-0.00753753	11	-0.00209376	0	0.00209376	0.000000000000000E+000	0.00209376	0.0000000E+000	0.000000000000000E+000	0.00164665
2	0	0	0	0	0	0	12.5484	-1.00001	-1.00032	-1.60264	-0.0135076	-0.0135076	11	-0.0037521	0	0.0037521	0.000000000000000E+000	0.0037521	0.0000000E+000	0.000000000000000E+000	0.00160316
2	0	0	0	0	0	0	16.2484	-1.00001	-1.00038	-1.60949	-0.0194534	-0.0194534	11	-0.00540373	0	0.00540373	0.000000000000000E+000	0.00540373	0.0000000E+000	0.000000000000000E+000	0.00161011
2	0	0	0	0	0	0	19.9484	-1.00001	-1.00019	-1.61142	-0.0254163	-0.0254163	11	-0.0070601	0	0.0070601	0.000000000000000E+000	0.0070601	0.0000000E+000	0.000000000000000E+000	0.00161173
2	0	0	0	0	0	0	23.6484	-1.00001	-1.00038	-1.60392	-0.0313587	-0.0313587	11	-0.00871076	0	0.00871076	0.000000000000000E+000	0.00871076	0.0000000E+000	0.000000000000000E+000	0.00160453
2	0	0	0	0	0	0	27.3484	-1.00001	-1.00029	-1.60461	-0.0373132	-0.0373132	11	-0.0103648	0	0.0103648	0.000000000000000E+000	0.0103648	0.0000000E+000	0.000000000000000E+000	0.00160507
2	0	0	0	0	0	0	31.0484	-1.00001	-1.00027	-1.61949	-0.0432755	-0.0432755	11	-0.012021	0	0.012021	0.000000000000000E+000	0.012021	0.0000000E+000	0.000000000000000E+000	0.00161992
2	0	0	0	0	0	0	34.7484	-1.00001	-1.00034	-1.61052	-0.0492438	-0.0492438	11	-0.0136788	0	0.0136788	0.000000000000000E+000	0.0136788	0.0000000E+000	0.000000000000000E+000	0.00161108
2	0	0	0	0	0	0	38.4484	-1.00001	-1.00044	-1.46354	-0.0548907	-0.0548907	11	-0.0152474	0	0.0152474	0.000000000000000E+000	0.0152474	0.0000000E+000	0.000000000000000E+000	0.00146418
2	0	0	0	0	0	0	42.1484	-1.00001	-1.00042	-1.4577	-0.060296	-0.060296	11	-0.0167489	0	0.0167489	0.000000000000000E+000	0.0167489	0.0000000E+000	0.000000000000000E+000	0.00145831
2	0	0	0	0	0	0	45.8484	-1.00001	-1.00034	-1.46143	-0.0656965	-0.0656965	11	-0.018249	0	0.018249	0.000000000000000E+000	0.018249	0.0000000E+000	0.000000000000000E+000	0.00146193
2	0	0	0	0	0	0	49.5484	-1.00001	-1.00044	-1.40866	-0.0709459	-0.0709459	11	-0.0197072	0	0.0197072	0.000000000000000E+000	0.0197072	0.0000000E+000	0.000000000000000E+000	0.00140928
2	0	0	0	0	0	0	53.2484	-1.00001	-1.00038	-1.41563	-0.076171	-0.076171	11	-0.0211586	0	0.0211586	0.000000000000000E+000	0.0211586	0.0000000E+000	0.000000000000000E+000	0.00141617
2	0	0	0	0	0	0	56.9484	-1.00001	-1.00029	-1.42319	-0.0814181	-0.0814181	11	-0.0226161	0	0.0226161	0.000000000000000E+000	0.0226161	0.0000000E+000	0.000000000000000E+000	0.0014236
2	0	0	0	0	0	0	60.6484	-1.00001	-1.00027	-1.33874	-0.0865737	-0.0865737	11	-0.0240482	0	0.0240482	0.000000000000000E+000	0.0240482	0.0000000E+000	0.000000000000000E+000	0.0013391
2	0	0	0	0	0	0	64.3484	-1.00001	-1.00046	-1.3206	-0.09148	-0.09148	11	-0.0254111	0	0.0254111	0.000000000000000E+000	0.0254111	0.0000000E+000	0.000000000000000E+000	0.00132121
2	0	0	0	0	0	0	68.0484	-1.00001	-1.00032	-1.32141	-0.0963667	-0.0963667	11	-0.0267685	0	0.0267685	0.000000000000000E+000	0.0267685	0.0000000E+000	0.000000000000000E+000	0.00132184
2	0	0	0	0	0	0	71.7484	-1.00001	-1.00032	-1.33097	-0.101284	-0.101284	11	-0.0281344	0	0.0281344	0.000000000000000E+000	0.0281344	0.0000000E+000	0.000000000000000E+000	0.0013314
2	0	0	0	0	0	0	75.4484	-1.00001	-1.00034	-1.33315	-0.106211	-0.106211	11	-0.0295031	0	0.0295031	0.000000000000000E+000	0.0295031	0.0000000E+000	0.000000000000000E+000	0.00133361
2	0	0	0	0	0	0	79.1484	-1.00001	-1.00032	-1.33302	-0.11114	-0.11114	11	-0.0308723	0	0.0308723	0.000000000000000E+000	0.0308723	0.0000000E+000	0.000000000000000E+000	0.00133346
2	0	0	0	0	0	0	82.8484	-1.00001	-1.00038	-1.33402	-0.116071	-0.116071	11	-0.0322419	0	0.0322419	0.000000000000000E+000	0.0322419	0.0000000E+000	0.000000000000000E+000	0.00133453
2	0	0	0	0	0	0	86.5484	-1.00001	-1.00038	-1.28482	-0.120923	-0.120923	11	-0.0335896	0	0.0335896	0.000000000000000E+000	0.0335896	0.0000000E+000	0.000000000000000E+000	0.00128531
2	0	0	0	0	0	0	90.2484	-1.00001	-1.0004	-1.27546	-0.125668	-0.125668	11	-0.0349078	0	0.0349078	0.000000000000000E+000	0.0349078	0.0000000E+000	0.000000000000000E+000	0.00127597
2	0	0	0	0	0	0	93.9484	-1.00001	-1.00046	-1.25829	-0.130381	-0.130381	11	-0.036217	0	0.036217	0.000000000000000E+000	0.036217	0.0000000E+000	0.000000000000000E+000	0.00125887
2	0	0	0	0	0	0	97.6484	-1.00001	-1.00032	-1.20218	-0.134904	-0.134904	11	-0.0374734	0	0.0374734	0.000000000000000E+000	0.0374734	0.0000000E+000	0.000000000000000E+000	0.00120257
2	0	0	0	0	0	0	101.348	-1.00001	-1.00053	-1.19592	-0.139329	-0.139329	11	-0.0387024	0	0.0387024	0.000000000000000E+000	0.0387024	0.0000000E+000	0.000000000000000E+000	0.00119656
2	0	0	0	0	0	0	105.048	-1.00001	-1.00046	-1.34882	-0.143764	-0.143764	11	-0.0399346	0	0.0399346	0.000000000000000E+000	0.0399346	0.0000000E+000	0.000000000000000E+000	0.00134944
2	0	0	0	0	0	0	108.748	-1.00001	-1.00031	-1.15863	-0.148247	-0.148247	11	-0.0411798	0	0.0411798	0.000000000000000E+000	0.0411798	0.0000000E+000	0.000000000000000E+000	0.00115899
2	0	0	0	0	0	0	112.448	-1.00001	-1.00029	-1.12993	-0.152465	-0.152465	11	-0.0423514	0	0.0423514	0.000000000000000E+000	0.0423514	0.0000000E+000	0.000000000000000E+000	0.00113025
[...]
2	0	0	0	0	0	0	142.048	-1.00001	-1.00032	-1.27614	-0.18736	-0.18736	11	-0.0520443	0	0.0520443	0.000000000000000E+000	0.0520443	0.0000000E+000	0.000000000000000E+000	0.00127656
2	0	0	0	0	0	0	145.748	-1.00001	-1.00046	-1.27066	-0.192071	-0.192071	11	-0.0533529	0	0.0533529	0.000000000000000E+000	0.0533529	0.0000000E+000	0.000000000000000E+000	0.00127124
2	0	0	0	0	0	0	149.448	-1.00001	-1.00032	-1.42841	-0.196788	-0.196788	11	-0.0546633	0	0.0546633	0.000000000000000E+000	0.0546633	0.0000000E+000	0.000000000000000E+000	0.00142887
2	0	0	0	0	0	0	153.148	-1.00001	-1.00032	-1.42314	-0.201917	-0.201917	11	-0.0560882	0	0.0560882	0.000000000000000E+000	0.0560882	0.0000000E+000	0.000000000000000E+000	0.00142361
2	0	0	0	0	0	0	156.848	-1.00001	-1.00044	-1.38967	-0.207088	-0.207088	11	-0.0575243	0	0.0575243	0.000000000000000E+000	0.0575243	0.0000000E+000	0.000000000000000E+000	0.00139028
2	0	0	0	0	0	0	160.548	-1.00001	-1.00034	-1.3868	-0.212211	-0.212211	11	-0.0589474	0	0.0589474	0.000000000000000E+000	0.0589474	0.0000000E+000	0.000000000000000E+000	0.00138728
2	0	0	0	0	0	0	164.248	-1.00001	-1.00032	-1.42561	-0.217383	-0.217383	11	-0.0603841	0	0.0603841	0.000000000000000E+000	0.0603841	0.0000000E+000	0.000000000000000E+000	0.00142607
2	0	0	0	0	0	0	167.948	-1.00001	-1.00036	-1.55027	-0.223004	-0.223004	11	-0.0619457	0	0.0619457	0.000000000000000E+000	0.0619457	0.0000000E+000	0.000000000000000E+000	0.00155083
2	0	0	0	0	0	0	171.648	-1.00001	-1.00053	-1.54698	-0.228731	-0.228731	11	-0.0635365	0	0.0635365	0.000000000000000E+000	0.0635365	0.0000000E+000	0.000000000000000E+000	0.00154781
2	0	0	0	0	0	0	175.348	-1.00001	-1.00023	-1.56514	-0.234483	-0.234483	11	-0.0651342	0	0.0651342	0.000000000000000E+000	0.0651342	0.0000000E+000	0.000000000000000E+000	0.00156549
2	0	0	0	0	0	0	179.048	-1.00001	-1.00038	-1.55871	-0.24025	-0.24025	11	-0.0667362	0	0.0667362	0.000000000000000E+000	0.0667362	0.0000000E+000	0.000000000000000E+000	0.00155931
2	0	0	0	0	0	0	182.748	-1.00001	-1.00023	-1.68617	-0.246336	-0.246336	11	-0.0684266	0	0.0684266	0.000000000000000E+000	0.0684266	0.0000000E+000	0.000000000000000E+000	0.00168655
2	0	0	0	0	0	0	186.448	-1.00001	-1.00032	-1.6889	-0.252579	-0.252579	11	-0.0701609	0	0.0701609	0.000000000000000E+000	0.0701609	0.0000000E+000	0.000000000000000E+000	0.00168945
2	0	0	0	0	0	0	190.148	-1.00001	-1.00034	-1.6717	-0.258786	-0.258786	11	-0.071885	0	0.071885	0.000000000000000E+000	0.071885	0.0000000E+000	0.000000000000000E+000	0.00167227
2	0	0	0	0	0	0	193.848	-1.00001	-1.00015	-1.92923	-0.265761	-0.265761	11	-0.0738226	0	0.0738226	0.000000000000000E+000	0.0738226	0.0000000E+000	0.000000000000000E+000	0.00192953
2	0	0	0	0	0	0	197.548	-1.00001	-1.00032	-1.93449	-0.272924	-0.272924	11	-0.0758121	0	0.0758121	0.000000000000000E+000	0.0758121	0.0000000E+000	0.000000000000000E+000	0.00193512
2	0	0	0	0	0	0	201.248	-1.00001	-1.00057	-1.92055	-0.280051	-0.280051	11	-0.0777918	0	0.0777918	0.000000000000000E+000	0.0777918	0.0000000E+000	0.000000000000000E+000	0.00192165
2	0	0	0	0	0	0	204.948	-1.00001	-1.00032	-1.93694	-0.287174	-0.287174	11	-0.0797706	0	0.0797706	0.000000000000000E+000	0.0797706	0.0000000E+000	0.000000000000000E+000	0.00193756
2	0	0	0	0	0	0	208.648	-1.00001	-1.00055	-1.92485	-0.294308	-0.294308	11	-0.0817522	0	0.0817522	0.000000000000000E+000	0.0817522	0.0000000E+000	0.000000000000000E+000	0.00192592
2	0	0	0	0	0	0	212.259	-1.00001	-1.00025	-1.94687	-0.30129	-0.30129	11	-0.0836916	0	0.0836916	0.000000000000000E+000	0.0836916	0.0000000E+000	0.000000000000000E+000	0.00194735

File: ZnPVAECH_07 RDE 3 ECH 1600 rpm K-L.mpt
EC-Lab ASCII FILE
Nb header lines : 69

Chronoamperometry / Chronocoulometry

Run on channel : 5 (SN 6729)
User :
CE vs. WE compliance from -10 V to 10 V
Electrode connection : standard
Potential control : Ewe
Ewe ctrl range : min = -2.50 V, max = 2.50 V
Safety Limits :
	Do not start on E overload
Acquisition started on : 04/04/2022 13:04:27.143
Technique started on : 04/04/2022 13:12:52.126
Loaded Setting File :  NONE
Saved on :
	File : 04-22-22-Zn PVA ECH 1600 rpm K-L RDE1 gc_04_CA_C05.mpr
	Directory : \\research-scb.egr.msu.edu\research-scb\Mindy\Koutecky Levich\Zn PVA\ECH\04-04-22\
	Host : 35.9.136.210
Device : VSP (SN 0012)
Address : 35.9.137.65
EC-Lab for windows v11.43 (software)
Internet server v11.40 (firmware)
Command interpretor v11.40 (firmware)
Electrode material : Au/Pd
Initial state :
Electrolyte : NaCl (0.2M)
Comments : Fe(CN)63-/Fe(CN)64- 5.10-3 M
Reference electrode : SCE Saturated Calomel Electrode (0.241 V)
Electrode surface area : 0.196 cm²
Characteristic mass : 0.001 g
Equivalent Weight : 0.000 g/eq.
Density : 0.000 g/cm3
Volume (V) : 0.001 cm³
Cycle Definition : Charge/Discharge alternance
Ei (V)              -0.700
vs.                 Ref
ti (h:m:s)          0:30:0.0000
Imax                pass
unit Imax           mA
Imin                pass
unit Imin           mA
dQM                 0.000
unit dQM            mA.h
record              <I>
dI                  5.000
unit dI             µA
dQ                  0.000
unit dQ             mA.h
dt (s)              0.1000
dta (s)             0.1000
E range min (V)     -2.500
E range max (V)     2.500
I Range             Auto
I Range min         Unset
I Range max         Unset
I Range init        Unset
Bandwidth           5
goto Ns'            0
nc cycles           0

Modify on : 04/04/2022 13:13
Ei (V)              -0.800

Modify on : 04/04/2022 13:13
Ei (V)              -0.750

mode	ox/red	error	control changes	Ns changes	counter inc.	Ns	time/s	control/V	Ewe/V	<I>/mA	dQ/C	(Q-Qo)/C	I Range	Q charge/discharge/mA.h	half cycle	Q discharge/mA.h	Q charge/mA.h	Capacity/mA.h	Efficiency/%	cycle number	P/W
2	0	0	0	0	0	0	504.983	-0.699977	-0.700496	-0.80787	-3.91783e-05	-3.91783e-05	12	-1.08829e-05	0	1.08829e-05	0.000000000000000E+000	1.08829e-05	0.0000000E+000	0.000000000000000E+000	0.00056591
2	0	0	0	0	0	0	509.283	-0.699977	-0.700381	-0.809837	-0.00352473	-0.00352473	12	-0.000979093	0	0.000979093	0.000000000000000E+000	0.000979093	0.0000000E+000	0.000000000000000E+000	0.000567195
2	0	0	0	0	0	0	513.583	-0.699977	-0.700229	-0.807053	-0.00700053	-0.00700053	12	-0.00194459	0	0.00194459	0.000000000000000E+000	0.00194459	0.0000000E+000	0.000000000000000E+000	0.000565122
2	0	0	0	0	0	0	517.883	-0.699977	-0.700248	-0.804537	-0.0104645	-0.0104645	12	-0.0029068	0	0.0029068	0.000000000000000E+000	0.0029068	0.0000000E+000	0.000000000000000E+000	0.000563375
2	0	0	1	0	0	0	522.183	-0.800021	-0.800362	-2.41037	-0.0183449	-0.0183449	11	-0.0050958	0	0.0050958	0.000000000000000E+000	0.0050958	0.0000000E+000	0.000000000000000E+000	0.00192917
2	0	0	1	0	0	0	526.483	-0.800021	-0.800477	-2.40788	-0.0287004	-0.0287004	11	-0.00797234	0	0.00797234	0.000000000000000E+000	0.00797234	0.0000000E+000	0.000000000000000E+000	0.00192745
2	0	0	1	0	0	0	530.783	-0.800021	-0.800534	-2.39902	-0.0390251	-0.0390251	11	-0.0108403	0	0.0108403	0.000000000000000E+000	0.0108403	0.0000000E+000	0.000000000000000E+000	0.0019205
2	0	0	1	0	0	0	535.083	-0.800021	-0.800382	-2.3916	-0.0493121	-0.0493121	11	-0.0136978	0	0.0136978	0.000000000000000E+000	0.0136978	0.0000000E+000	0.000000000000000E+000	0.00191419
2	0	0	1	0	0	0	539.383	-0.800021	-0.800286	-2.38955	-0.0595922	-0.0595922	11	-0.0165534	0	0.0165534	0.000000000000000E+000	0.0165534	0.0000000E+000	0.000000000000000E+000	0.00191233
2	0	0	1	0	0	0	543.683	-0.800021	-0.800592	-2.38825	-0.069867	-0.069867	11	-0.0194075	0	0.0194075	0.000000000000000E+000	0.0194075	0.0000000E+000	0.000000000000000E+000	0.00191201
2	0	0	0	0	0	0	547.983	-0.749999	-0.750458	-1.50108	-0.0766446	-0.0766446	11	-0.0212902	0	0.0212902	0.000000000000000E+000	0.0212902	0.0000000E+000	0.000000000000000E+000	0.0011265
2	0	0	0	0	0	0	552.283	-0.749999	-0.750458	-1.49854	-0.0830915	-0.0830915	11	-0.023081	0	0.023081	0.000000000000000E+000	0.023081	0.0000000E+000	0.000000000000000E+000	0.00112459
2	0	0	0	0	0	0	556.583	-0.749999	-0.750477	-1.49566	-0.0895292	-0.0895292	11	-0.0248692	0	0.0248692	0.000000000000000E+000	0.0248692	0.0000000E+000	0.000000000000000E+000	0.00112246
2	0	0	0	0	0	0	560.883	-0.749999	-0.750381	-1.46321	-0.0958361	-0.0958361	11	-0.0266212	0	0.0266212	0.000000000000000E+000	0.0266212	0.0000000E+000	0.000000000000000E+000	0.00109796
2	0	0	0	0	0	0	565.183	-0.749999	-0.750553	-1.45897	-0.102118	-0.102118	11	-0.0283662	0	0.0283662	0.000000000000000E+000	0.0283662	0.0000000E+000	0.000000000000000E+000	0.00109503
2	0	0	0	0	0	0	569.483	-0.749999	-0.750362	-1.45337	-0.108378	-0.108378	11	-0.0301051	0	0.0301051	0.000000000000000E+000	0.0301051	0.0000000E+000	0.000000000000000E+000	0.00109055
2	0	0	0	0	0	0	573.783	-0.749999	-0.750439	-1.42384	-0.114577	-0.114577	11	-0.0318271	0	0.0318271	0.000000000000000E+000	0.0318271	0.0000000E+000	0.000000000000000E+000	0.0010685
2	0	0	0	0	0	0	578.083	-0.749999	-0.750381	-1.42432	-0.120704	-0.120704	11	-0.0335289	0	0.0335289	0.000000000000000E+000	0.0335289	0.0000000E+000	0.000000000000000E+000	0.00106879
2	0	0	0	0	0	0	582.383	-0.749999	-0.750477	-1.42324	-0.126829	-0.126829	11	-0.0352303	0	0.0352303	0.000000000000000E+000	0.0352303	0.0000000E+000	0.000000000000000E+000	0.00106811
2	0	0	0	0	0	0	586.683	-0.749999	-0.750458	-1.36045	-0.132818	-0.132818	11	-0.0368939	0	0.0368939	0.000000000000000E+000	0.0368939	0.0000000E+000	0.000000000000000E+000	0.00102096
2	0	0	0	0	0	0	590.983	-0.749999	-0.750458	-1.36537	-0.138679	-0.138679	11	-0.0385219	0	0.0385219	0.000000000000000E+000	0.0385219	0.0000000E+000	0.000000000000000E+000	0.00102465
2	0	0	0	0	0	0	595.283	-0.749999	-0.750477	-1.35718	-0.144533	-0.144533	11	-0.0401481	0	0.0401481	0.000000000000000E+000	0.0401481	0.0000000E+000	0.000000000000000E+000	0.00101853
2	0	0	0	0	0	0	599.583	-0.749999	-0.75042	-1.3576	-0.150381	-0.150381	11	-0.0417725	0	0.0417725	0.000000000000000E+000	0.0417725	0.0000000E+000	0.000000000000000E+000	0.00101877
2	0	0	0	0	0	0	603.883	-0.749999	-0.750439	-1.36201	-0.156219	-0.156219	11	-0.0433942	0	0.0433942	0.000000000000000E+000	0.0433942	0.0000000E+000	0.000000000000000E+000	0.0010221
2	0	0	0	0	0	0	608.183	-0.749999	-0.750611	-1.33015	-0.162047	-0.162047	11	-0.0450129	0	0.0450129	0.000000000000000E+000	0.0450129	0.0000000E+000	0.000000000000000E+000	0.000998424
2	0	0	0	0	0	0	612.483	-0.749999	-0.750458	-1.30941	-0.167694	-0.167694	11	-0.0465817	0	0.0465817	0.000000000000000E+000	0.0465817	0.0000000E+000	0.000000000000000E+000	0.000982659
2	0	0	0	0	0	0	616.783	-0.749999	-0.750572	-1.31038	-0.173334	-0.173334	11	-0.0481483	0	0.0481483	0.000000000000000E+000	0.0481483	0.0000000E+000	0.000000000000000E+000	0.000983534
2	0	0	0	0	0	0	621.083	-0.749999	-0.75042	-1.31654	-0.178974	-0.178974	11	-0.049715	0	0.049715	0.000000000000000E+000	0.049715	0.0000000E+000	0.000000000000000E+000	0.000987958
[...]
2	0	0	0	0	0	0	659.783	-0.749999	-0.750362	-1.18301	-0.22629	-0.22629	11	-0.0628582	0	0.0628582	0.000000000000000E+000	0.0628582	0.0000000E+000	0.000000000000000E+000	0.000887689
2	0	0	0	0	0	0	664.083	-0.749999	-0.750477	-1.29105	-0.231643	-0.231643	11	-0.0643452	0	0.0643452	0.000000000000000E+000	0.0643452	0.0000000E+000	0.000000000000000E+000	0.000968904
2	0	0	0	0	0	0	668.383	-0.749999	-0.750553	-1.04911	-0.236493	-0.236493	11	-0.0656926	0	0.0656926	0.000000000000000E+000	0.0656926	0.0000000E+000	0.000000000000000E+000	0.000787409
2	0	0	0	0	0	0	672.683	-0.749999	-0.750553	-1.01786	-0.240903	-0.240903	11	-0.0669176	0	0.0669176	0.000000000000000E+000	0.0669176	0.0000000E+000	0.000000000000000E+000	0.000763955
2	0	0	0	0	0	0	676.983	-0.749999	-0.750591	-1.22748	-0.245588	-0.245588	11	-0.068219	0	0.068219	0.000000000000000E+000	0.068219	0.0000000E+000	0.000000000000000E+000	0.000921338
2	0	0	0	0	0	0	681.283	-0.749999	-0.750381	-1.2331	-0.250905	-0.250905	11	-0.0696958	0	0.0696958	0.000000000000000E+000	0.0696958	0.0000000E+000	0.000000000000000E+000	0.000925296
2	0	0	0	0	0	0	685.583	-0.749999	-0.750362	-1.23418	-0.256227	-0.256227	11	-0.0711742	0	0.0711742	0.000000000000000E+000	0.0711742	0.0000000E+000	0.000000000000000E+000	0.000926083
2	0	0	0	0	0	0	689.883	-0.749999	-0.750534	-1.29528	-0.261755	-0.261755	11	-0.0727098	0	0.0727098	0.000000000000000E+000	0.0727098	0.0000000E+000	0.000000000000000E+000	0.000972153
2	0	0	0	0	0	0	694.183	-0.749999	-0.750572	-1.29812	-0.267347	-0.267347	11	-0.074263	0	0.074263	0.000000000000000E+000	0.074263	0.0000000E+000	0.000000000000000E+000	0.000974333
2	0	0	0	0	0	0	698.483	-0.749999	-0.750381	-1.34673	-0.273091	-0.273091	11	-0.0758585	0	0.0758585	0.000000000000000E+000	0.0758585	0.0000000E+000	0.000000000000000E+000	0.00101056
2	0	0	0	0	0	0	702.783	-0.749999	-0.750324	-1.34225	-0.278869	-0.278869	11	-0.0774636	0	0.0774636	0.000000000000000E+000	0.0774636	0.0000000E+000	0.000000000000000E+000	0.00100712
2	0	0	0	0	0	0	707.083	-0.749999	-0.750381	-1.39685	-0.284835	-0.284835	11	-0.0791208	0	0.0791208	0.000000000000000E+000	0.0791208	0.0000000E+000	0.000000000000000E+000	0.00104817
2	0	0	0	0	0	0	711.383	-0.749999	-0.750515	-1.42114	-0.290855	-0.290855	11	-0.0807931	0	0.0807931	0.000000000000000E+000	0.0807931	0.0000000E+000	0.000000000000000E+000	0.00106659
2	0	0	0	0	0	0	715.683	-0.749999	-0.750477	-1.41386	-0.296954	-0.296954	11	-0.0824872	0	0.0824872	0.000000000000000E+000	0.0824872	0.0000000E+000	0.000000000000000E+000	0.00106107
2	0	0	0	0	0	0	719.983	-0.749999	-0.750381	-1.41191	-0.303038	-0.303038	11	-0.0841771	0	0.0841771	0.000000000000000E+000	0.0841771	0.0000000E+000	0.000000000000000E+000	0.00105947
2	0	0	0	0	0	0	724.283	-0.749999	-0.750496	-1.39764	-0.309176	-0.309176	11	-0.0858822	0	0.0858822	0.000000000000000E+000	0.0858822	0.0000000E+000	0.000000000000000E+000	0.00104892
2	0	0	0	0	0	0	728.583	-0.749999	-0.750458	-1.40792	-0.315207	-0.315207	11	-0.0875574	0	0.0875574	0.000000000000000E+000	0.0875574	0.0000000E+000	0.000000000000000E+000	0.00105659
2	0	0	0	0	0	0	732.883	-0.749999	-0.750553	-1.43003	-0.321273	-0.321273	11	-0.0892424	0	0.0892424	0.000000000000000E+000	0.0892424	0.0000000E+000	0.000000000000000E+000	0.00107331
2	0	0	0	0	0	0	737.183	-0.749999	-0.750611	-1.38418	-0.327362	-0.327362	11	-0.0909339	0	0.0909339	0.000000000000000E+000	0.0909339	0.0000000E+000	0.000000000000000E+000	0.00103898
2	0	0	0	0	0	0	741.197	-0.749999	-0.750324	-1.40446	-0.33298	-0.33298	11	-0.0924943	0	0.0924943	0.000000000000000E+000	0.0924943	0.0000000E+000	0.000000000000000E+000	0.0010538