Folder: Koutecky-Levich-for-ECH (part 2)

File: ZnPVAECH_1 RDE 3 ECH 1600 rpm K-L.mpt
EC-Lab ASCII FILE
Nb header lines : 66

Chronoamperometry / Chronocoulometry

Run on channel : 5 (SN 6729)
User :
CE vs. WE compliance from -10 V to 10 V
Electrode connection : standard
Potential control : Ewe
Ewe ctrl range : min = -2.50 V, max = 2.50 V
Safety Limits :
	Do not start on E overload
Acquisition started on : 04/04/2022 12:47:39.364
Technique started on : 04/04/2022 12:47:44.512
Loaded Setting File :  NONE
Saved on :
	File : 04-22-22-Zn PVA ECH 1600 rpm K-L RDE1_02_CA_C05.mpr
	Directory : \\research-scb.egr.msu.edu\research-scb\Mindy\Koutecky Levich\Zn PVA\ECH\04-04-22\
	Host : 35.9.136.210
Device : VSP (SN 0012)
Address : 35.9.137.65
EC-Lab for windows v11.43 (software)
Internet server v11.40 (firmware)
Command interpretor v11.40 (firmware)
Electrode material : Au/Pd
Initial state :
Electrolyte : NaCl (0.2M)
Comments : Fe(CN)63-/Fe(CN)64- 5.10-3 M
Reference electrode : SCE Saturated Calomel Electrode (0.241 V)
Electrode surface area : 0.196 cm²
Characteristic mass : 0.001 g
Equivalent Weight : 0.000 g/eq.
Density : 0.000 g/cm3
Volume (V) : 0.001 cm³
Cycle Definition : Charge/Discharge alternance
Ei (V)              -0.100
vs.                 Ref
ti (h:m:s)          0:10:0.0000
Imax                pass
unit Imax           mA
Imin                pass
unit Imin           mA
dQM                 0.000
unit dQM            mA.h
record              <I>
dI                  5.000
unit dI             µA
dQ                  0.000
unit dQ             mA.h
dt (s)              0.1000
dta (s)             0.1000
E range min (V)     -2.500
E range max (V)     2.500
I Range             Auto
I Range min         Unset
I Range max         Unset
I Range init        Unset
Bandwidth           5
goto Ns'            0
nc cycles           0

Modify on : 04/04/2022 12:48
Ei (V)              -1.000

mode	ox/red	error	control changes	Ns changes	counter inc.	Ns	time/s	control/V	Ewe/V	<I>/mA	dQ/C	(Q-Qo)/C	I Range	Q charge/discharge/mA.h	half cycle	Q discharge/mA.h	Q charge/mA.h	Capacity/mA.h	Efficiency/%	cycle number	P/W
2	1	0	0	0	0	0	5.1484	-0.100008	-0.100095	2.72274	0.000105743	0.000105743	11	2.9373e-05	0	0.000000000000000E+000	2.9373e-05	2.9373e-05	0.0000000E+000	0.000000000000000E+000	-0.000272532
2	1	0	0	0	0	0	14.1716	-0.100008	-0.100228	0.654269	0.0044781	0.0044781	12	0.00124392	0	0.000000000000000E+000	0.00124392	0.00124392	0.0000000E+000	0.000000000000000E+000	-6.55763e-05
2	0	0	1	0	0	0	23.1716	-1.00001	-1.00036	-5.11434	-0.0138407	-0.0138407	11	-0.00621545	1	0.00621545	0.000000000000000E+000	0.00621545	0.0000000E+000	0.000000000000000E+000	0.0051162
2	0	0	1	0	0	0	32.1716	-1.00001	-1.00038	-4.85275	-0.058594	-0.058594	11	-0.0186469	1	0.0186469	0.000000000000000E+000	0.0186469	0.0000000E+000	0.000000000000000E+000	0.0048546
2	0	0	1	0	0	0	41.1716	-1.00001	-1.00078	-4.88202	-0.102524	-0.102524	11	-0.0308497	1	0.0308497	0.000000000000000E+000	0.0308497	0.0000000E+000	0.000000000000000E+000	0.00488584
2	0	0	1	0	0	0	50.1716	-1.00001	-1.00073	-4.97768	-0.147097	-0.147097	11	-0.0432311	1	0.0432311	0.000000000000000E+000	0.0432311	0.0000000E+000	0.000000000000000E+000	0.00498129
2	0	0	1	0	0	0	59.1716	-1.00001	-1.00032	-5.14734	-0.192905	-0.192905	11	-0.0559555	1	0.0559555	0.000000000000000E+000	0.0559555	0.0000000E+000	0.000000000000000E+000	0.00514901
2	0	0	1	0	0	0	68.1716	-1.00001	-1.0004	-5.23974	-0.239758	-0.239758	11	-0.0689704	1	0.0689704	0.000000000000000E+000	0.0689704	0.0000000E+000	0.000000000000000E+000	0.00524184
2	0	0	1	0	0	0	77.1716	-1.00001	-1.00002	-5.33344	-0.28741	-0.28741	11	-0.0822071	1	0.0822071	0.000000000000000E+000	0.0822071	0.0000000E+000	0.000000000000000E+000	0.00533354
2	0	0	1	0	0	0	86.1716	-1.00001	-1.00076	-5.37633	-0.3358	-0.3358	11	-0.0956486	1	0.0956486	0.000000000000000E+000	0.0956486	0.0000000E+000	0.000000000000000E+000	0.00538043
2	0	0	1	0	0	0	95.1716	-1.00001	-1.00029	-5.37658	-0.384405	-0.384405	11	-0.10915	1	0.10915	0.000000000000000E+000	0.10915	0.0000000E+000	0.000000000000000E+000	0.00537812
2	0	0	1	0	0	0	104.172	-1.00001	-1.00023	-5.42204	-0.433012	-0.433012	11	-0.122652	1	0.122652	0.000000000000000E+000	0.122652	0.0000000E+000	0.000000000000000E+000	0.00542328
2	0	0	1	0	0	0	113.172	-1.00001	-1.0001	-5.51359	-0.482142	-0.482142	11	-0.136299	1	0.136299	0.000000000000000E+000	0.136299	0.0000000E+000	0.000000000000000E+000	0.00551411
2	0	0	1	0	0	0	122.172	-1.00001	-1.00015	-5.47403	-0.53156	-0.53156	11	-0.150026	1	0.150026	0.000000000000000E+000	0.150026	0.0000000E+000	0.000000000000000E+000	0.00547487
2	0	0	1	0	0	0	131.172	-1.00001	-1.00044	-5.54971	-0.581066	-0.581066	11	-0.163778	1	0.163778	0.000000000000000E+000	0.163778	0.0000000E+000	0.000000000000000E+000	0.00555215
2	0	0	1	0	0	0	140.172	-1.00001	-1.00036	-5.66365	-0.631683	-0.631683	11	-0.177838	1	0.177838	0.000000000000000E+000	0.177838	0.0000000E+000	0.000000000000000E+000	0.0056657
2	0	0	1	0	0	0	149.172	-1.00001	-1.00052	-5.68057	-0.682878	-0.682878	11	-0.192059	1	0.192059	0.000000000000000E+000	0.192059	0.0000000E+000	0.000000000000000E+000	0.0056835
2	0	0	1	0	0	0	158.172	-1.00001	-1.00048	-5.6714	-0.733583	-0.733583	11	-0.206144	1	0.206144	0.000000000000000E+000	0.206144	0.0000000E+000	0.000000000000000E+000	0.0056741
2	0	0	1	0	0	0	167.172	-1.00001	-1.00015	-6.11251	-0.785903	-0.785903	11	-0.220677	1	0.220677	0.000000000000000E+000	0.220677	0.0000000E+000	0.000000000000000E+000	0.00611344
2	0	0	1	0	0	0	176.172	-1.00001	-1.00057	-6.18511	-0.841402	-0.841402	11	-0.236094	1	0.236094	0.000000000000000E+000	0.236094	0.0000000E+000	0.000000000000000E+000	0.00618865
2	0	0	1	0	0	0	185.172	-1.00001	-1.00063	-6.2153	-0.897005	-0.897005	11	-0.251539	1	0.251539	0.000000000000000E+000	0.251539	0.0000000E+000	0.000000000000000E+000	0.00621922
2	0	0	1	0	0	0	194.172	-1.00001	-1.00036	-6.2428	-0.952965	-0.952965	11	-0.267083	1	0.267083	0.000000000000000E+000	0.267083	0.0000000E+000	0.000000000000000E+000	0.00624506
2	0	0	1	0	0	0	203.172	-1.00001	-1.00032	-6.18752	-1.00888	-1.00888	11	-0.282616	1	0.282616	0.000000000000000E+000	0.282616	0.0000000E+000	0.000000000000000E+000	0.00618953
2	0	0	1	0	0	0	212.172	-1.00001	-1.00061	-5.61679	-1.06301	-1.06301	11	-0.29765	1	0.29765	0.000000000000000E+000	0.29765	0.0000000E+000	0.000000000000000E+000	0.00562022
2	0	0	1	0	0	0	221.172	-1.00001	-1.00025	-5.56075	-1.11316	-1.11316	11	-0.311583	1	0.311583	0.000000000000000E+000	0.311583	0.0000000E+000	0.000000000000000E+000	0.00556213
2	0	0	1	0	0	0	230.172	-1.00001	-1.00034	-5.10649	-1.16139	-1.16139	11	-0.324978	1	0.324978	0.000000000000000E+000	0.324978	0.0000000E+000	0.000000000000000E+000	0.00510824
2	0	0	1	0	0	0	239.172	-1.00001	-1.00061	-5.09501	-1.20727	-1.20727	11	-0.337725	1	0.337725	0.000000000000000E+000	0.337725	0.0000000E+000	0.000000000000000E+000	0.00509812
2	0	0	1	0	0	0	248.172	-1.00001	-1.00025	-5.04959	-1.25286	-1.25286	11	-0.350386	1	0.350386	0.000000000000000E+000	0.350386	0.0000000E+000	0.000000000000000E+000	0.00505084
2	0	0	1	0	0	0	257.172	-1.00001	-1.00046	-4.1713	-1.29346	-1.29346	11	-0.361664	1	0.361664	0.000000000000000E+000	0.361664	0.0000000E+000	0.000000000000000E+000	0.00417321
2	0	0	1	0	0	0	266.172	-1.00001	-1.00052	-4.10362	-1.33092	-1.33092	11	-0.372071	1	0.372071	0.000000000000000E+000	0.372071	0.0000000E+000	0.000000000000000E+000	0.00410573
[...]
2	0	0	1	0	0	0	347.172	-1.00001	-1.00021	-2.60381	-1.61083	-1.61083	11	-0.449824	1	0.449824	0.000000000000000E+000	0.449824	0.0000000E+000	0.000000000000000E+000	0.00260436
2	0	0	1	0	0	0	356.172	-1.00001	-1.0005	-2.55658	-1.63392	-1.63392	11	-0.456237	1	0.456237	0.000000000000000E+000	0.456237	0.0000000E+000	0.000000000000000E+000	0.00255784
2	0	0	1	0	0	0	365.172	-1.00001	-1.00052	-2.65953	-1.65729	-1.65729	11	-0.46273	1	0.46273	0.000000000000000E+000	0.46273	0.0000000E+000	0.000000000000000E+000	0.0026609
2	0	0	1	0	0	0	374.172	-1.00001	-1.00044	-2.66442	-1.68138	-1.68138	11	-0.469421	1	0.469421	0.000000000000000E+000	0.469421	0.0000000E+000	0.000000000000000E+000	0.00266559
2	0	0	1	0	0	0	383.172	-1.00001	-1.00046	-2.87442	-1.70644	-1.70644	11	-0.476382	1	0.476382	0.000000000000000E+000	0.476382	0.0000000E+000	0.000000000000000E+000	0.00287574
2	0	0	1	0	0	0	392.172	-1.00001	-1.00032	-3.12475	-1.73267	-1.73267	11	-0.483669	1	0.483669	0.000000000000000E+000	0.483669	0.0000000E+000	0.000000000000000E+000	0.00312577
2	0	0	1	0	0	0	401.172	-1.00001	-1.00027	-3.14037	-1.76106	-1.76106	11	-0.491555	1	0.491555	0.000000000000000E+000	0.491555	0.0000000E+000	0.000000000000000E+000	0.00314121
2	0	0	1	0	0	0	410.172	-1.00001	-1.00052	-3.58856	-1.79018	-1.79018	11	-0.499642	1	0.499642	0.000000000000000E+000	0.499642	0.0000000E+000	0.000000000000000E+000	0.00359041
2	0	0	1	0	0	0	419.172	-1.00001	-1.0005	-3.71682	-1.82356	-1.82356	11	-0.508916	1	0.508916	0.000000000000000E+000	0.508916	0.0000000E+000	0.000000000000000E+000	0.00371866
2	0	0	1	0	0	0	428.172	-1.00001	-1.00029	-3.63011	-1.85664	-1.85664	11	-0.518103	1	0.518103	0.000000000000000E+000	0.518103	0.0000000E+000	0.000000000000000E+000	0.00363115
2	0	0	1	0	0	0	437.172	-1.00001	-0.999924	-4.76764	-1.89656	-1.89656	11	-0.529193	1	0.529193	0.000000000000000E+000	0.529193	0.0000000E+000	0.000000000000000E+000	0.00476728
2	0	0	1	0	0	0	446.172	-1.00001	-1.00029	-4.89821	-1.93943	-1.93943	11	-0.5411	1	0.5411	0.000000000000000E+000	0.5411	0.0000000E+000	0.000000000000000E+000	0.00489961
2	0	0	1	0	0	0	455.172	-1.00001	-1.00034	-4.90546	-1.98348	-1.98348	11	-0.553338	1	0.553338	0.000000000000000E+000	0.553338	0.0000000E+000	0.000000000000000E+000	0.00490714
2	0	0	1	0	0	0	464.172	-1.00001	-1.00038	-5.23962	-2.02797	-2.02797	11	-0.565695	1	0.565695	0.000000000000000E+000	0.565695	0.0000000E+000	0.000000000000000E+000	0.00524162
2	0	0	1	0	0	0	473.172	-1.00001	-1.00118	-5.20269	-2.07534	-2.07534	11	-0.578854	1	0.578854	0.000000000000000E+000	0.578854	0.0000000E+000	0.000000000000000E+000	0.00520885
2	0	0	1	0	0	0	482.172	-1.00001	-1.00094	-5.18395	-2.12202	-2.12202	11	-0.591821	1	0.591821	0.000000000000000E+000	0.591821	0.0000000E+000	0.000000000000000E+000	0.0051888
2	0	0	1	0	0	0	491.172	-1.00001	-1.00029	-5.68596	-2.1712	-2.1712	11	-0.605482	1	0.605482	0.000000000000000E+000	0.605482	0.0000000E+000	0.000000000000000E+000	0.00568759
2	0	0	1	0	0	0	500.172	-1.00001	-1.00053	-5.64997	-2.22216	-2.22216	11	-0.619637	1	0.619637	0.000000000000000E+000	0.619637	0.0000000E+000	0.000000000000000E+000	0.00565299
2	0	0	1	0	0	0	509.172	-1.00001	-1.00011	-5.9472	-2.27469	-2.27469	11	-0.634229	1	0.634229	0.000000000000000E+000	0.634229	0.0000000E+000	0.000000000000000E+000	0.00594788
2	0	0	1	0	0	0	518.172	-1.00001	-1.00055	-5.89259	-2.32799	-2.32799	11	-0.649035	1	0.649035	0.000000000000000E+000	0.649035	0.0000000E+000	0.000000000000000E+000	0.00589585
2	0	0	1	0	0	0	522.283	-1.00001	-0.999675	-5.83863	-2.35219	-2.35219	11	-0.655758	1	0.655758	0.000000000000000E+000	0.655758	27659.5	0.000000000000000E+000	0.00583674

File: ZnPVAECH_07 04-22-22-Zn -07 PVA ECH 1600 rpm K-L gc4_03_CA_C05(1).mpt
EC-Lab ASCII FILE
Nb header lines : 66

Chronoamperometry / Chronocoulometry

Run on channel : 5 (SN 6729)
User :
CE vs. WE compliance from -10 V to 10 V
Electrode connection : standard
Potential control : Ewe
Ewe ctrl range : min = -2.50 V, max = 2.50 V
Safety Limits :
	Do not start on E overload
Acquisition started on : 04/04/2022 16:58:56.968
Technique started on : 04/04/2022 17:00:00.629
Loaded Setting File :  NONE
Saved on :
	File : 04-22-22-Zn PVA ECH 1600 rpm K-L gc4_03_CA_C05.mpr
	Directory : \\research-scb.egr.msu.edu\research-scb\Mindy\Koutecky Levich\Zn PVA\ECH\04-04-22\
	Host : 35.9.136.210
Device : VSP (SN 0012)
Address : 35.9.137.65
EC-Lab for windows v11.43 (software)
Internet server v11.40 (firmware)
Command interpretor v11.40 (firmware)
Electrode material : Au/Pd
Initial state :
Electrolyte : NaCl (0.2M)
Comments : Fe(CN)63-/Fe(CN)64- 5.10-3 M
Reference electrode : SCE Saturated Calomel Electrode (0.241 V)
Electrode surface area : 0.196 cm²
Characteristic mass : 0.001 g
Equivalent Weight : 0.000 g/eq.
Density : 0.000 g/cm3
Volume (V) : 0.001 cm³
Cycle Definition : Charge/Discharge alternance
Ei (V)              -0.800
vs.                 Ref
ti (h:m:s)          0:10:0.0000
Imax                pass
unit Imax           mA
Imin                pass
unit Imin           mA
dQM                 0.000
unit dQM            mA.h
record              <I>
dI                  5.000
unit dI             µA
dQ                  0.000
unit dQ             mA.h
dt (s)              0.1000
dta (s)             0.1000
E range min (V)     -2.500
E range max (V)     2.500
I Range             Auto
I Range min         Unset
I Range max         Unset
I Range init        Unset
Bandwidth           5
goto Ns'            0
nc cycles           0

Modify on : 04/04/2022 17:00
Ei (V)              -0.830

mode	ox/red	error	control changes	Ns changes	counter inc.	Ns	time/s	control/V	Ewe/V	<I>/mA	dQ/C	(Q-Qo)/C	I Range	Q charge/discharge/mA.h	half cycle	Q discharge/mA.h	Q charge/mA.h	Capacity/mA.h	Efficiency/%	cycle number	P/W
2	0	0	0	0	0	0	63.6612	-0.830035	-0.830469	-1.64581	-7.2126e-05	-7.2126e-05	11	-2.0035e-05	0	2.0035e-05	0.000000000000000E+000	2.0035e-05	0.0000000E+000	0.000000000000000E+000	0.00136679
2	0	0	0	0	0	0	66.1612	-0.830035	-0.830488	-1.62044	-0.00412505	-0.00412505	11	-0.00114585	0	0.00114585	0.000000000000000E+000	0.00114585	0.0000000E+000	0.000000000000000E+000	0.00134576
2	0	0	0	0	0	0	68.6612	-0.830035	-0.830603	-1.61702	-0.00817014	-0.00817014	11	-0.00226948	0	0.00226948	0.000000000000000E+000	0.00226948	0.0000000E+000	0.000000000000000E+000	0.0013431
2	0	0	0	0	0	0	71.1612	-0.830035	-0.83045	-1.55913	-0.0121583	-0.0121583	11	-0.00337731	0	0.00337731	0.000000000000000E+000	0.00337731	0.0000000E+000	0.000000000000000E+000	0.00129478
2	0	0	0	0	0	0	73.6612	-0.830035	-0.830431	-1.5721	-0.0160842	-0.0160842	11	-0.00446784	0	0.00446784	0.000000000000000E+000	0.00446784	0.0000000E+000	0.000000000000000E+000	0.00130552
2	0	0	0	0	0	0	76.1612	-0.830035	-0.830412	-1.5702	-0.0200121	-0.0200121	11	-0.00555892	0	0.00555892	0.000000000000000E+000	0.00555892	0.0000000E+000	0.000000000000000E+000	0.00130391
2	0	0	0	0	0	0	78.6612	-0.830035	-0.830546	-1.53501	-0.0238794	-0.0238794	11	-0.00663316	0	0.00663316	0.000000000000000E+000	0.00663316	0.0000000E+000	0.000000000000000E+000	0.00127489
2	0	0	0	0	0	0	81.1612	-0.830035	-0.830488	-1.53704	-0.0277213	-0.0277213	11	-0.00770035	0	0.00770035	0.000000000000000E+000	0.00770035	0.0000000E+000	0.000000000000000E+000	0.0012765
2	0	0	0	0	0	0	83.6612	-0.830035	-0.830508	-1.53763	-0.0315629	-0.0315629	11	-0.00876748	0	0.00876748	0.000000000000000E+000	0.00876748	0.0000000E+000	0.000000000000000E+000	0.00127701
2	0	0	0	0	0	0	86.1612	-0.830035	-0.83045	-1.53634	-0.0354041	-0.0354041	11	-0.00983448	0	0.00983448	0.000000000000000E+000	0.00983448	0.0000000E+000	0.000000000000000E+000	0.00127585
2	0	0	0	0	0	0	88.6612	-0.830035	-0.830469	-1.45413	-0.0391586	-0.0391586	11	-0.0108774	0	0.0108774	0.000000000000000E+000	0.0108774	0.0000000E+000	0.000000000000000E+000	0.00120761
2	0	0	0	0	0	0	91.1612	-0.830035	-0.83045	-1.4525	-0.0427964	-0.0427964	11	-0.0118879	0	0.0118879	0.000000000000000E+000	0.0118879	0.0000000E+000	0.000000000000000E+000	0.00120623
2	0	0	0	0	0	0	93.6612	-0.830035	-0.830431	-1.45751	-0.0464331	-0.0464331	11	-0.0128981	0	0.0128981	0.000000000000000E+000	0.0128981	0.0000000E+000	0.000000000000000E+000	0.00121036
2	0	0	0	0	0	0	96.1612	-0.830035	-0.830584	-1.45693	-0.0500709	-0.0500709	11	-0.0139086	0	0.0139086	0.000000000000000E+000	0.0139086	0.0000000E+000	0.000000000000000E+000	0.00121011
2	0	0	0	0	0	0	98.6612	-0.830035	-0.83045	-1.3859	-0.0536012	-0.0536012	11	-0.0148892	0	0.0148892	0.000000000000000E+000	0.0148892	0.0000000E+000	0.000000000000000E+000	0.00115092
2	0	0	0	0	0	0	101.161	-0.830035	-0.830412	-1.38797	-0.0570743	-0.0570743	11	-0.015854	0	0.015854	0.000000000000000E+000	0.015854	0.0000000E+000	0.000000000000000E+000	0.00115259
2	0	0	0	0	0	0	103.661	-0.830035	-0.830469	-1.39314	-0.0605468	-0.0605468	11	-0.0168186	0	0.0168186	0.000000000000000E+000	0.0168186	0.0000000E+000	0.000000000000000E+000	0.00115696
2	0	0	0	0	0	0	106.161	-0.830035	-0.830488	-1.3214	-0.0639882	-0.0639882	11	-0.0177745	0	0.0177745	0.000000000000000E+000	0.0177745	0.0000000E+000	0.000000000000000E+000	0.00109741
2	0	0	0	0	0	0	108.661	-0.830035	-0.830412	-1.29794	-0.0672589	-0.0672589	11	-0.018683	0	0.018683	0.000000000000000E+000	0.018683	0.0000000E+000	0.000000000000000E+000	0.00107782
2	0	0	0	0	0	0	111.161	-0.830035	-0.830412	-1.29834	-0.0705057	-0.0705057	11	-0.0195849	0	0.0195849	0.000000000000000E+000	0.0195849	0.0000000E+000	0.000000000000000E+000	0.00107816
2	0	0	0	0	0	0	113.661	-0.830035	-0.83045	-1.30092	-0.0737547	-0.0737547	11	-0.0204874	0	0.0204874	0.000000000000000E+000	0.0204874	0.0000000E+000	0.000000000000000E+000	0.00108035
2	0	0	0	0	0	0	116.161	-0.830035	-0.830546	-1.30271	-0.0770041	-0.0770041	11	-0.02139	0	0.02139	0.000000000000000E+000	0.02139	0.0000000E+000	0.000000000000000E+000	0.00108196
2	0	0	0	0	0	0	118.661	-0.830035	-0.830469	-1.24099	-0.0801926	-0.0801926	11	-0.0222757	0	0.0222757	0.000000000000000E+000	0.0222757	0.0000000E+000	0.000000000000000E+000	0.0010306
2	0	0	0	0	0	0	121.161	-0.830035	-0.830546	-1.22206	-0.0832638	-0.0832638	11	-0.0231288	0	0.0231288	0.000000000000000E+000	0.0231288	0.0000000E+000	0.000000000000000E+000	0.00101497
2	0	0	0	0	0	0	123.661	-0.830035	-0.830469	-1.21495	-0.0863176	-0.0863176	11	-0.0239771	0	0.0239771	0.000000000000000E+000	0.0239771	0.0000000E+000	0.000000000000000E+000	0.00100898
2	0	0	0	0	0	0	126.161	-0.830035	-0.83045	-1.22048	-0.089371	-0.089371	11	-0.0248253	0	0.0248253	0.000000000000000E+000	0.0248253	0.0000000E+000	0.000000000000000E+000	0.00101355
2	0	0	0	0	0	0	128.661	-0.830035	-0.830355	-1.22486	-0.0924247	-0.0924247	11	-0.0256735	0	0.0256735	0.000000000000000E+000	0.0256735	0.0000000E+000	0.000000000000000E+000	0.00101707
2	0	0	0	0	0	0	131.161	-0.830035	-0.83045	-1.28599	-0.0955499	-0.0955499	11	-0.0265416	0	0.0265416	0.000000000000000E+000	0.0265416	0.0000000E+000	0.000000000000000E+000	0.00106795
2	0	0	0	0	0	0	133.661	-0.830035	-0.830546	-1.30469	-0.0987921	-0.0987921	11	-0.0274422	0	0.0274422	0.000000000000000E+000	0.0274422	0.0000000E+000	0.000000000000000E+000	0.00108361
[...]
2	0	0	0	0	0	0	153.661	-0.830035	-0.830431	-1.38908	-0.125831	-0.125831	11	-0.034953	0	0.034953	0.000000000000000E+000	0.034953	0.0000000E+000	0.000000000000000E+000	0.00115354
2	0	0	0	0	0	0	156.161	-0.830035	-0.830527	-1.45776	-0.129429	-0.129429	11	-0.0359525	0	0.0359525	0.000000000000000E+000	0.0359525	0.0000000E+000	0.000000000000000E+000	0.00121071
2	0	0	0	0	0	0	158.661	-0.830035	-0.83045	-1.45169	-0.133066	-0.133066	11	-0.0369627	0	0.0369627	0.000000000000000E+000	0.0369627	0.0000000E+000	0.000000000000000E+000	0.00120555
2	0	0	0	0	0	0	161.161	-0.830035	-0.830527	-1.45196	-0.136692	-0.136692	11	-0.0379699	0	0.0379699	0.000000000000000E+000	0.0379699	0.0000000E+000	0.000000000000000E+000	0.00120589
2	0	0	0	0	0	0	163.661	-0.830035	-0.830355	-1.45537	-0.140323	-0.140323	11	-0.0389786	0	0.0389786	0.000000000000000E+000	0.0389786	0.0000000E+000	0.000000000000000E+000	0.00120847
2	0	0	0	0	0	0	166.161	-0.830035	-0.830412	-1.53378	-0.144086	-0.144086	11	-0.0400239	0	0.0400239	0.000000000000000E+000	0.0400239	0.0000000E+000	0.000000000000000E+000	0.00127367
2	0	0	0	0	0	0	168.661	-0.830035	-0.830565	-1.53004	-0.147915	-0.147915	11	-0.0410875	0	0.0410875	0.000000000000000E+000	0.0410875	0.0000000E+000	0.000000000000000E+000	0.00127079
2	0	0	0	0	0	0	171.161	-0.830035	-0.830374	-1.5279	-0.151738	-0.151738	11	-0.0421496	0	0.0421496	0.000000000000000E+000	0.0421496	0.0000000E+000	0.000000000000000E+000	0.00126873
2	0	0	0	0	0	0	173.661	-0.830035	-0.830546	-1.52709	-0.155558	-0.155558	11	-0.0432105	0	0.0432105	0.000000000000000E+000	0.0432105	0.0000000E+000	0.000000000000000E+000	0.00126832
2	0	0	0	0	0	0	176.161	-0.830035	-0.830412	-1.56228	-0.159424	-0.159424	11	-0.0442844	0	0.0442844	0.000000000000000E+000	0.0442844	0.0000000E+000	0.000000000000000E+000	0.00129733
2	0	0	0	0	0	0	178.661	-0.830035	-0.830603	-1.55679	-0.163318	-0.163318	11	-0.0453662	0	0.0453662	0.000000000000000E+000	0.0453662	0.0000000E+000	0.000000000000000E+000	0.00129308
2	0	0	0	0	0	0	181.161	-0.830035	-0.830508	-1.55522	-0.167209	-0.167209	11	-0.0464469	0	0.0464469	0.000000000000000E+000	0.0464469	0.0000000E+000	0.000000000000000E+000	0.00129163
2	0	0	0	0	0	0	183.661	-0.830035	-0.830336	-1.55431	-0.171095	-0.171095	11	-0.0475264	0	0.0475264	0.000000000000000E+000	0.0475264	0.0000000E+000	0.000000000000000E+000	0.0012906
2	0	0	0	0	0	0	186.161	-0.830035	-0.830641	-1.59472	-0.175082	-0.175082	11	-0.0486339	0	0.0486339	0.000000000000000E+000	0.0486339	0.0000000E+000	0.000000000000000E+000	0.00132464
2	0	0	0	0	0	0	188.661	-0.830035	-0.830431	-1.59352	-0.179069	-0.179069	11	-0.0497414	0	0.0497414	0.000000000000000E+000	0.0497414	0.0000000E+000	0.000000000000000E+000	0.00132331
2	0	0	0	0	0	0	191.161	-0.830035	-0.830565	-1.5897	-0.183048	-0.183048	11	-0.0508466	0	0.0508466	0.000000000000000E+000	0.0508466	0.0000000E+000	0.000000000000000E+000	0.00132035
2	0	0	0	0	0	0	193.661	-0.830035	-0.830393	-1.58876	-0.187021	-0.187021	11	-0.0519503	0	0.0519503	0.000000000000000E+000	0.0519503	0.0000000E+000	0.000000000000000E+000	0.00131929
2	0	0	0	0	0	0	196.161	-0.830035	-0.830469	-1.58442	-0.190987	-0.190987	11	-0.0530518	0	0.0530518	0.000000000000000E+000	0.0530518	0.0000000E+000	0.000000000000000E+000	0.00131582
2	0	0	0	0	0	0	198.661	-0.830035	-0.830393	-1.58421	-0.194948	-0.194948	11	-0.0541524	0	0.0541524	0.000000000000000E+000	0.0541524	0.0000000E+000	0.000000000000000E+000	0.00131552
2	0	0	0	0	0	0	199.921	-0.830035	-0.830565	-1.58357	-0.196944	-0.196944	11	-0.0547067	0	0.0547067	0.000000000000000E+000	0.0547067	0.0000000E+000	0.000000000000000E+000	0.00131526