Folder: Koutecky-Levich-for-ECH (part 7)

File: ZnPVAGAECH_1 03-20-22-ZnGAPVA ECH-1600 rpm at -1V vs RHE RDE1_04_CA_C05.mpt
EC-Lab ASCII FILE
Nb header lines : 65

Chronoamperometry / Chronocoulometry

Run on channel : 5 (SN 6729)
User :
CE vs. WE compliance from -10 V to 10 V
Electrode connection : standard
Potential control : Ewe
Ewe ctrl range : min = -2.50 V, max = 2.50 V
Safety Limits :
	Do not start on E overload
Acquisition started on : 03/20/2022 14:08:37.437
Technique started on : 03/20/2022 14:14:13.396
Loaded Setting File :  NONE
Saved on :
	File : 03-20-22-ZnGAPVA  ECH-1600 rpm at -0_8V vs RHE RDE1_04_CA_C05.mpr
	Directory : \\research-scb.egr.msu.edu\research-scb\Mindy\Koutecky Levich\Zn GA PVA 001\ECH\03-20-22\
	Host : 35.9.136.210
Device : VSP (SN 0012)
Address : 35.9.137.65
EC-Lab for windows v11.43 (software)
Internet server v11.40 (firmware)
Command interpretor v11.40 (firmware)
Electrode material :
Initial state :
Electrolyte :
Comments :
Electrode surface area : 0.196 cm²
Characteristic mass : 0.001 g
Equivalent Weight : 0.000 g/eq.
Density : 0.000 g/cm3
Volume (V) : 0.001 cm³
Cycle Definition : Charge/Discharge alternance
Ei (V)              -0.500
vs.                 Ref
ti (h:m:s)          0:30:0.0000
Imax                pass
unit Imax           mA
Imin                pass
unit Imin           mA
dQM                 0.000
unit dQM            mA.h
record              <I>
dI                  5.000
unit dI             µA
dQ                  0.000
unit dQ             mA.h
dt (s)              0.1000
dta (s)             0.1000
E range min (V)     -2.500
E range max (V)     2.500
I Range             Auto
I Range min         Unset
I Range max         Unset
I Range init        Unset
Bandwidth           5
goto Ns'            0
nc cycles           0

Modify on : 03/20/2022 14:14
Ei (V)              -1.000

mode	ox/red	error	control changes	Ns changes	counter inc.	Ns	time/s	control/V	Ewe/V	<I>/mA	dQ/C	(Q-Qo)/C	I Range	Q charge/discharge/mA.h	half cycle	Q discharge/mA.h	Q charge/mA.h	Capacity/mA.h	Efficiency/%	cycle number	P/W
2	0	0	1	0	0	0	335.959	-1.00004	-1.00058	-3.66572	-0.000366572	-0.000366572	11	-0.000101825	0	0.000101825	0.000000000000000E+000	0.000101825	0.0000000E+000	0.000000000000000E+000	0.00366783
2	0	0	1	0	0	0	342.859	-1.00004	-1.00054	-3.83579	-0.0267194	-0.0267194	11	-0.00742206	0	0.00742206	0.000000000000000E+000	0.00742206	0.0000000E+000	0.000000000000000E+000	0.00383785
2	0	0	1	0	0	0	349.759	-1.00004	-1.00054	-3.78662	-0.0528823	-0.0528823	11	-0.0146895	0	0.0146895	0.000000000000000E+000	0.0146895	0.0000000E+000	0.000000000000000E+000	0.00378866
2	0	0	1	0	0	0	356.659	-1.00004	-1.0005	-3.76006	-0.0788783	-0.0788783	11	-0.0219106	0	0.0219106	0.000000000000000E+000	0.0219106	0.0000000E+000	0.000000000000000E+000	0.00376194
2	0	0	1	0	0	0	363.559	-1.00004	-1.0005	-3.73131	-0.104749	-0.104749	11	-0.0290968	0	0.0290968	0.000000000000000E+000	0.0290968	0.0000000E+000	0.000000000000000E+000	0.00373317
2	0	0	1	0	0	0	370.459	-1.00004	-1.0005	-3.79522	-0.130627	-0.130627	11	-0.0362852	0	0.0362852	0.000000000000000E+000	0.0362852	0.0000000E+000	0.000000000000000E+000	0.00379712
2	0	0	1	0	0	0	377.359	-1.00004	-1.00042	-3.87259	-0.157132	-0.157132	11	-0.0436477	0	0.0436477	0.000000000000000E+000	0.0436477	0.0000000E+000	0.000000000000000E+000	0.00387423
2	0	0	1	0	0	0	384.259	-1.00004	-1.0005	-3.85681	-0.18386	-0.18386	11	-0.0510723	0	0.0510723	0.000000000000000E+000	0.0510723	0.0000000E+000	0.000000000000000E+000	0.00385873
2	0	0	1	0	0	0	391.159	-1.00004	-1.00069	-3.91829	-0.210592	-0.210592	11	-0.0584978	0	0.0584978	0.000000000000000E+000	0.0584978	0.0000000E+000	0.000000000000000E+000	0.003921
2	0	0	1	0	0	0	398.059	-1.00004	-1.0005	-3.90295	-0.237545	-0.237545	11	-0.0659848	0	0.0659848	0.000000000000000E+000	0.0659848	0.0000000E+000	0.000000000000000E+000	0.0039049
2	0	0	1	0	0	0	404.959	-1.00004	-1.00044	-3.882	-0.264453	-0.264453	11	-0.0734592	0	0.0734592	0.000000000000000E+000	0.0734592	0.0000000E+000	0.000000000000000E+000	0.00388372
2	0	0	1	0	0	0	411.859	-1.00004	-1.0005	-3.91578	-0.291283	-0.291283	11	-0.0809118	0	0.0809118	0.000000000000000E+000	0.0809118	0.0000000E+000	0.000000000000000E+000	0.00391773
2	0	0	1	0	0	0	418.759	-1.00004	-1.00029	-3.15362	-0.314279	-0.314279	11	-0.0872996	0	0.0872996	0.000000000000000E+000	0.0872996	0.0000000E+000	0.000000000000000E+000	0.00315454
2	0	0	1	0	0	0	425.659	-1.00004	-1.0004	-3.17363	-0.336084	-0.336084	11	-0.0933567	0	0.0933567	0.000000000000000E+000	0.0933567	0.0000000E+000	0.000000000000000E+000	0.00317491
2	0	0	1	0	0	0	432.559	-1.00004	-1.0004	-3.17611	-0.357933	-0.357933	11	-0.0994259	0	0.0994259	0.000000000000000E+000	0.0994259	0.0000000E+000	0.000000000000000E+000	0.00317739
2	0	0	1	0	0	0	439.459	-1.00004	-1.00038	-2.79649	-0.377638	-0.377638	11	-0.1049	0	0.1049	0.000000000000000E+000	0.1049	0.0000000E+000	0.000000000000000E+000	0.00279756
2	0	0	1	0	0	0	446.359	-1.00004	-1.00042	-2.79908	-0.396921	-0.396921	11	-0.110256	0	0.110256	0.000000000000000E+000	0.110256	0.0000000E+000	0.000000000000000E+000	0.00280026
2	0	0	1	0	0	0	453.259	-1.00004	-1.00054	-2.79941	-0.416238	-0.416238	11	-0.115622	0	0.115622	0.000000000000000E+000	0.115622	0.0000000E+000	0.000000000000000E+000	0.00280091
2	0	0	1	0	0	0	460.159	-1.00004	-1.00048	-2.31404	-0.432811	-0.432811	11	-0.120225	0	0.120225	0.000000000000000E+000	0.120225	0.0000000E+000	0.000000000000000E+000	0.00231515
2	0	0	1	0	0	0	467.059	-1.00004	-1.00044	-2.29856	-0.448792	-0.448792	11	-0.124664	0	0.124664	0.000000000000000E+000	0.124664	0.0000000E+000	0.000000000000000E+000	0.00229958
2	0	0	1	0	0	0	473.959	-1.00004	-1.00044	-2.25714	-0.464544	-0.464544	11	-0.12904	0	0.12904	0.000000000000000E+000	0.12904	0.0000000E+000	0.000000000000000E+000	0.00225814
2	0	0	1	0	0	0	480.859	-1.00004	-1.00038	-2.27995	-0.48029	-0.48029	11	-0.133414	0	0.133414	0.000000000000000E+000	0.133414	0.0000000E+000	0.000000000000000E+000	0.00228083
2	0	0	1	0	0	0	487.759	-1.00004	-1.00038	-2.27881	-0.496018	-0.496018	11	-0.137783	0	0.137783	0.000000000000000E+000	0.137783	0.0000000E+000	0.000000000000000E+000	0.00227969
2	0	0	1	0	0	0	494.659	-1.00004	-1.00054	-2.08036	-0.511457	-0.511457	11	-0.142071	0	0.142071	0.000000000000000E+000	0.142071	0.0000000E+000	0.000000000000000E+000	0.00208148
2	0	0	1	0	0	0	501.559	-1.00004	-1.0005	-2.03207	-0.525476	-0.525476	11	-0.145965	0	0.145965	0.000000000000000E+000	0.145965	0.0000000E+000	0.000000000000000E+000	0.00203309
2	0	0	1	0	0	0	508.459	-1.00004	-1.00046	-2.00874	-0.539394	-0.539394	11	-0.149832	0	0.149832	0.000000000000000E+000	0.149832	0.0000000E+000	0.000000000000000E+000	0.00200966
2	0	0	1	0	0	0	515.359	-1.00004	-1.00038	-1.98862	-0.553254	-0.553254	11	-0.153682	0	0.153682	0.000000000000000E+000	0.153682	0.0000000E+000	0.000000000000000E+000	0.00198939
2	0	0	1	0	0	0	522.259	-1.00004	-1.00046	-1.7855	-0.565985	-0.565985	11	-0.157218	0	0.157218	0.000000000000000E+000	0.157218	0.0000000E+000	0.000000000000000E+000	0.00178632
2	0	0	1	0	0	0	529.159	-1.00004	-1.0004	-1.78689	-0.57829	-0.57829	11	-0.160636	0	0.160636	0.000000000000000E+000	0.160636	0.0000000E+000	0.000000000000000E+000	0.00178761
2	0	0	1	0	0	0	536.059	-1.00004	-1.00037	-1.7264	-0.590494	-0.590494	11	-0.164026	0	0.164026	0.000000000000000E+000	0.164026	0.0000000E+000	0.000000000000000E+000	0.00172703
[...]
2	0	0	1	0	0	0	598.159	-1.00004	-1.00044	-1.93636	-0.699017	-0.699017	11	-0.194171	0	0.194171	0.000000000000000E+000	0.194171	0.0000000E+000	0.000000000000000E+000	0.00193721
2	0	0	1	0	0	0	605.059	-1.00004	-1.00038	-2.20947	-0.712864	-0.712864	11	-0.198018	0	0.198018	0.000000000000000E+000	0.198018	0.0000000E+000	0.000000000000000E+000	0.00221032
2	0	0	1	0	0	0	611.959	-1.00004	-1.00054	-2.19773	-0.728174	-0.728174	11	-0.20227	0	0.20227	0.000000000000000E+000	0.20227	0.0000000E+000	0.000000000000000E+000	0.00219891
2	0	0	1	0	0	0	618.859	-1.00004	-1.00033	-2.22047	-0.743478	-0.743478	11	-0.206522	0	0.206522	0.000000000000000E+000	0.206522	0.0000000E+000	0.000000000000000E+000	0.00222119
2	0	0	1	0	0	0	625.759	-1.00004	-1.00035	-2.78362	-0.759768	-0.759768	11	-0.211047	0	0.211047	0.000000000000000E+000	0.211047	0.0000000E+000	0.000000000000000E+000	0.00278458
2	0	0	1	0	0	0	632.659	-1.00004	-1.0005	-2.77528	-0.778912	-0.778912	11	-0.216364	0	0.216364	0.000000000000000E+000	0.216364	0.0000000E+000	0.000000000000000E+000	0.00277666
2	0	0	1	0	0	0	639.559	-1.00004	-1.00046	-2.77237	-0.798176	-0.798176	11	-0.221716	0	0.221716	0.000000000000000E+000	0.221716	0.0000000E+000	0.000000000000000E+000	0.00277364
2	0	0	1	0	0	0	646.459	-1.00004	-1.00037	-2.78026	-0.817323	-0.817323	11	-0.227034	0	0.227034	0.000000000000000E+000	0.227034	0.0000000E+000	0.000000000000000E+000	0.00278127
2	0	0	1	0	0	0	653.359	-1.00004	-1.00052	-3.07334	-0.837864	-0.837864	11	-0.23274	0	0.23274	0.000000000000000E+000	0.23274	0.0000000E+000	0.000000000000000E+000	0.00307493
2	0	0	1	0	0	0	660.259	-1.00004	-1.0005	-3.1572	-0.859449	-0.859449	11	-0.238736	0	0.238736	0.000000000000000E+000	0.238736	0.0000000E+000	0.000000000000000E+000	0.00315878
2	0	0	1	0	0	0	667.159	-1.00004	-1.00035	-3.17913	-0.881484	-0.881484	11	-0.244857	0	0.244857	0.000000000000000E+000	0.244857	0.0000000E+000	0.000000000000000E+000	0.00318023
2	0	0	1	0	0	0	674.059	-1.00004	-1.00035	-3.1999	-0.903558	-0.903558	11	-0.250988	0	0.250988	0.000000000000000E+000	0.250988	0.0000000E+000	0.000000000000000E+000	0.00320101
2	0	0	1	0	0	0	680.959	-1.00004	-1.00042	-3.21321	-0.925754	-0.925754	11	-0.257154	0	0.257154	0.000000000000000E+000	0.257154	0.0000000E+000	0.000000000000000E+000	0.00321457
2	0	0	1	0	0	0	687.859	-1.00004	-1.00031	-4.02839	-0.952739	-0.952739	11	-0.26465	0	0.26465	0.000000000000000E+000	0.26465	0.0000000E+000	0.000000000000000E+000	0.00402964
2	0	0	1	0	0	0	694.759	-1.00004	-1.00059	-4.10508	-0.980865	-0.980865	11	-0.272463	0	0.272463	0.000000000000000E+000	0.272463	0.0000000E+000	0.000000000000000E+000	0.00410752
2	0	0	1	0	0	0	701.659	-1.00004	-1.0004	-4.05899	-1.00893	-1.00893	11	-0.280258	0	0.280258	0.000000000000000E+000	0.280258	0.0000000E+000	0.000000000000000E+000	0.00406062
2	0	0	1	0	0	0	708.559	-1.00004	-1.00054	-4.00439	-1.03681	-1.03681	11	-0.288002	0	0.288002	0.000000000000000E+000	0.288002	0.0000000E+000	0.000000000000000E+000	0.00400654
2	0	0	1	0	0	0	715.459	-1.00004	-1.00033	-4.03092	-1.06456	-1.06456	11	-0.295712	0	0.295712	0.000000000000000E+000	0.295712	0.0000000E+000	0.000000000000000E+000	0.00403224
2	0	0	1	0	0	0	722.359	-1.00004	-1.00035	-3.96424	-1.09236	-1.09236	11	-0.303433	0	0.303433	0.000000000000000E+000	0.303433	0.0000000E+000	0.000000000000000E+000	0.00396562
2	0	0	1	0	0	0	729.259	-1.00004	-1.00038	-3.96092	-1.11973	-1.11973	11	-0.311036	0	0.311036	0.000000000000000E+000	0.311036	0.0000000E+000	0.000000000000000E+000	0.00396244
2	0	0	1	0	0	0	730.896	-1.00004	-1.00037	-3.98162	-1.12624	-1.12624	11	-0.312844	0	0.312844	0.000000000000000E+000	0.312844	0.0000000E+000	0.000000000000000E+000	0.00398307

File: ZnPVAGAECH_1 03-20-22-ZnGAPVA ECH-1600 rpm at -1V vs RHE RDE2_03_CA_C05(1).mpt
EC-Lab ASCII FILE
Nb header lines : 77

Chronoamperometry / Chronocoulometry

Run on channel : 5 (SN 6729)
User :
CE vs. WE compliance from -10 V to 10 V
Electrode connection : standard
Potential control : Ewe
Ewe ctrl range : min = -2.50 V, max = 2.50 V
Safety Limits :
	Do not start on E overload
Acquisition started on : 03/20/2022 13:24:21.393
Technique started on : 03/20/2022 13:30:38.872
Loaded Setting File :  NONE
Saved on :
	File : 03-20-22-ZnGAPVA  ECH-1600 rpm at -0_8V vs RHE RDE2_03_CA_C05.mpr
	Directory : \\research-scb.egr.msu.edu\research-scb\Mindy\Koutecky Levich\Zn GA PVA 001\ECH\03-20-22\
	Host : 35.9.136.210
Device : VSP (SN 0012)
Address : 35.9.137.65
EC-Lab for windows v11.43 (software)
Internet server v11.40 (firmware)
Command interpretor v11.40 (firmware)
Electrode material :
Initial state :
Electrolyte :
Comments :
Electrode surface area : 0.001 cm²
Characteristic mass : 0.001 g
Equivalent Weight : 0.000 g/eq.
Density : 0.000 g/cm3
Volume (V) : 0.001 cm³
Cycle Definition : Charge/Discharge alternance
Ei (V)              -0.900
vs.                 Ref
ti (h:m:s)          0:30:0.0000
Imax                pass
unit Imax           mA
Imin                pass
unit Imin           mA
dQM                 0.000
unit dQM            mA.h
record              <I>
dI                  5.000
unit dI             µA
dQ                  0.000
unit dQ             mA.h
dt (s)              0.1000
dta (s)             0.1000
E range min (V)     -2.500
E range max (V)     2.500
I Range             Auto
I Range min         Unset
I Range max         Unset
I Range init        Unset
Bandwidth           5
goto Ns'            0
nc cycles           0

Modify on : 03/20/2022 13:24
Electrode surface area : 0.196 cm²

Modify on : 03/20/2022 13:31
Ei (V)              -0.700

Modify on : 03/20/2022 13:32
Ei (V)              -0.800

Modify on : 03/20/2022 13:32
Ei (V)              -0.750

Modify on : 03/20/2022 13:32
Ei (V)              -0.700

mode	ox/red	error	control changes	Ns changes	counter inc.	Ns	time/s	control/V	Ewe/V	<I>/mA	dQ/C	(Q-Qo)/C	I Range	Q charge/discharge/mA.h	half cycle	Q discharge/mA.h	Q charge/mA.h	Capacity/mA.h	Efficiency/%	cycle number	P/W
2	0	0	0	0	0	0	377.479	-0.899992	-0.900384	-6.93252	-0.000724178	-0.000724178	10	-0.000201161	0	0.000201161	0.000000000000000E+000	0.000201161	0.0000000E+000	0.000000000000000E+000	0.00624194
2	0	0	0	0	0	0	385.779	-0.899992	-0.900499	-5.61179	-0.0486346	-0.0486346	10	-0.0135096	0	0.0135096	0.000000000000000E+000	0.0135096	0.0000000E+000	0.000000000000000E+000	0.00505341
2	0	0	0	0	0	0	394.079	-0.899992	-0.900614	-5.58992	-0.0951675	-0.0951675	10	-0.0264354	0	0.0264354	0.000000000000000E+000	0.0264354	0.0000000E+000	0.000000000000000E+000	0.00503436
2	0	0	0	0	0	0	402.379	-0.899992	-0.900442	-5.58823	-0.14159	-0.14159	10	-0.0393306	0	0.0393306	0.000000000000000E+000	0.0393306	0.0000000E+000	0.000000000000000E+000	0.00503188
2	0	0	0	0	0	0	410.679	-0.899992	-0.900404	-5.55644	-0.187852	-0.187852	10	-0.0521811	0	0.0521811	0.000000000000000E+000	0.0521811	0.0000000E+000	0.000000000000000E+000	0.00500304
2	0	0	0	0	0	0	418.979	-0.899992	-0.900346	-5.5138	-0.233814	-0.233814	10	-0.0649484	0	0.0649484	0.000000000000000E+000	0.0649484	0.0000000E+000	0.000000000000000E+000	0.00496433
2	0	0	0	0	0	0	427.279	-0.899992	-0.900537	-5.48884	-0.279441	-0.279441	10	-0.0776226	0	0.0776226	0.000000000000000E+000	0.0776226	0.0000000E+000	0.000000000000000E+000	0.0049429
2	0	0	0	0	0	0	435.579	-0.899992	-0.900594	-5.45528	-0.324926	-0.324926	10	-0.0902572	0	0.0902572	0.000000000000000E+000	0.0902572	0.0000000E+000	0.000000000000000E+000	0.004913
2	0	0	0	0	0	0	443.879	-0.899992	-0.900461	-5.47669	-0.370269	-0.370269	10	-0.102852	0	0.102852	0.000000000000000E+000	0.102852	0.0000000E+000	0.000000000000000E+000	0.00493155
2	0	0	1	0	0	0	452.179	-0.700002	-0.700384	-3.20658	-0.399357	-0.399357	11	-0.110932	0	0.110932	0.000000000000000E+000	0.110932	0.0000000E+000	0.000000000000000E+000	0.00224584
2	0	0	0	0	0	0	460.479	-0.800047	-0.800518	-4.73019	-0.426038	-0.426038	11	-0.118344	0	0.118344	0.000000000000000E+000	0.118344	0.0000000E+000	0.000000000000000E+000	0.00378661
2	0	0	0	0	0	0	468.779	-0.800047	-0.800575	-4.33536	-0.462369	-0.462369	11	-0.128436	0	0.128436	0.000000000000000E+000	0.128436	0.0000000E+000	0.000000000000000E+000	0.00347078
2	0	0	1	0	0	0	477.079	-0.750025	-0.750384	-3.74366	-0.495867	-0.495867	11	-0.137741	0	0.137741	0.000000000000000E+000	0.137741	0.0000000E+000	0.000000000000000E+000	0.00280918
2	0	0	0	0	0	0	485.379	-0.700002	-0.700193	-3.1005	-0.526517	-0.526517	11	-0.146255	0	0.146255	0.000000000000000E+000	0.146255	0.0000000E+000	0.000000000000000E+000	0.00217095
2	0	0	0	0	0	0	493.679	-0.700002	-0.700403	-3.16112	-0.552686	-0.552686	11	-0.153524	0	0.153524	0.000000000000000E+000	0.153524	0.0000000E+000	0.000000000000000E+000	0.00221406
2	0	0	0	0	0	0	501.979	-0.700002	-0.700327	-3.1515	-0.57889	-0.57889	11	-0.160803	0	0.160803	0.000000000000000E+000	0.160803	0.0000000E+000	0.000000000000000E+000	0.00220708
2	0	0	0	0	0	0	510.279	-0.700002	-0.700594	-2.85637	-0.603834	-0.603834	11	-0.167732	0	0.167732	0.000000000000000E+000	0.167732	0.0000000E+000	0.000000000000000E+000	0.00200116
2	0	0	0	0	0	0	518.579	-0.700002	-0.700403	-2.81932	-0.627368	-0.627368	11	-0.174269	0	0.174269	0.000000000000000E+000	0.174269	0.0000000E+000	0.000000000000000E+000	0.00197466
2	0	0	0	0	0	0	526.879	-0.700002	-0.700632	-2.79723	-0.650665	-0.650665	11	-0.18074	0	0.18074	0.000000000000000E+000	0.18074	0.0000000E+000	0.000000000000000E+000	0.00195983
2	0	0	0	0	0	0	535.179	-0.700002	-0.700461	-2.78526	-0.673823	-0.673823	11	-0.187173	0	0.187173	0.000000000000000E+000	0.187173	0.0000000E+000	0.000000000000000E+000	0.00195097
2	0	0	0	0	0	0	543.479	-0.700002	-0.700442	-2.61032	-0.696503	-0.696503	11	-0.193473	0	0.193473	0.000000000000000E+000	0.193473	0.0000000E+000	0.000000000000000E+000	0.00182838
2	0	0	0	0	0	0	551.779	-0.700002	-0.700537	-2.57325	-0.717967	-0.717967	11	-0.199435	0	0.199435	0.000000000000000E+000	0.199435	0.0000000E+000	0.000000000000000E+000	0.00180266
2	0	0	0	0	0	0	560.079	-0.700002	-0.700403	-2.55909	-0.739254	-0.739254	11	-0.205348	0	0.205348	0.000000000000000E+000	0.205348	0.0000000E+000	0.000000000000000E+000	0.00179239
2	0	0	0	0	0	0	568.379	-0.700002	-0.700403	-2.28352	-0.759969	-0.759969	11	-0.211103	0	0.211103	0.000000000000000E+000	0.211103	0.0000000E+000	0.000000000000000E+000	0.00159938
2	0	0	0	0	0	0	576.679	-0.700002	-0.700422	-2.1979	-0.778463	-0.778463	11	-0.21624	0	0.21624	0.000000000000000E+000	0.21624	0.0000000E+000	0.000000000000000E+000	0.00153946
2	0	0	0	0	0	0	584.979	-0.700002	-0.700518	-2.1904	-0.796651	-0.796651	11	-0.221292	0	0.221292	0.000000000000000E+000	0.221292	0.0000000E+000	0.000000000000000E+000	0.00153441
2	0	0	0	0	0	0	593.279	-0.700002	-0.700556	-2.18132	-0.814801	-0.814801	11	-0.226334	0	0.226334	0.000000000000000E+000	0.226334	0.0000000E+000	0.000000000000000E+000	0.00152814
2	0	0	0	0	0	0	601.579	-0.700002	-0.70048	-1.99186	-0.831744	-0.831744	11	-0.23104	0	0.23104	0.000000000000000E+000	0.23104	0.0000000E+000	0.000000000000000E+000	0.00139526
2	0	0	0	0	0	0	609.879	-0.700002	-0.700518	-1.96396	-0.84815	-0.84815	11	-0.235597	0	0.235597	0.000000000000000E+000	0.235597	0.0000000E+000	0.000000000000000E+000	0.00137579
[...]
2	0	0	0	0	0	0	684.579	-0.700002	-0.700422	-1.67411	-0.974911	-0.974911	11	-0.270809	0	0.270809	0.000000000000000E+000	0.270809	0.0000000E+000	0.000000000000000E+000	0.00117258
2	0	0	0	0	0	0	692.879	-0.700002	-0.700346	-1.6783	-0.988817	-0.988817	11	-0.274671	0	0.274671	0.000000000000000E+000	0.274671	0.0000000E+000	0.000000000000000E+000	0.00117539
2	0	0	0	0	0	0	701.179	-0.700002	-0.700461	-1.88965	-1.00375	-1.00375	11	-0.278818	0	0.278818	0.000000000000000E+000	0.278818	0.0000000E+000	0.000000000000000E+000	0.00132363
2	0	0	0	0	0	0	709.479	-0.700002	-0.700556	-1.87795	-1.0194	-1.0194	11	-0.283167	0	0.283167	0.000000000000000E+000	0.283167	0.0000000E+000	0.000000000000000E+000	0.00131561
2	0	0	0	0	0	0	717.779	-0.700002	-0.700442	-2.07309	-1.03567	-1.03567	11	-0.287687	0	0.287687	0.000000000000000E+000	0.287687	0.0000000E+000	0.000000000000000E+000	0.00145208
2	0	0	0	0	0	0	726.079	-0.700002	-0.700537	-2.07755	-1.05296	-1.05296	11	-0.292488	0	0.292488	0.000000000000000E+000	0.292488	0.0000000E+000	0.000000000000000E+000	0.0014554
2	0	0	0	0	0	0	734.379	-0.700002	-0.700518	-2.45108	-1.07071	-1.07071	11	-0.297418	0	0.297418	0.000000000000000E+000	0.297418	0.0000000E+000	0.000000000000000E+000	0.00171703
2	0	0	0	0	0	0	742.679	-0.700002	-0.700442	-2.5553	-1.09172	-1.09172	11	-0.303255	0	0.303255	0.000000000000000E+000	0.303255	0.0000000E+000	0.000000000000000E+000	0.00178984
2	0	0	0	0	0	0	750.979	-0.700002	-0.700518	-2.56459	-1.11296	-1.11296	11	-0.309156	0	0.309156	0.000000000000000E+000	0.309156	0.0000000E+000	0.000000000000000E+000	0.00179654
2	0	0	0	0	0	0	759.279	-0.700002	-0.700632	-2.56327	-1.13426	-1.13426	11	-0.315073	0	0.315073	0.000000000000000E+000	0.315073	0.0000000E+000	0.000000000000000E+000	0.00179591
2	0	0	0	0	0	0	767.579	-0.700002	-0.700632	-2.70924	-1.15559	-1.15559	11	-0.320996	0	0.320996	0.000000000000000E+000	0.320996	0.0000000E+000	0.000000000000000E+000	0.00189818
2	0	0	0	0	0	0	775.879	-0.700002	-0.700461	-2.7731	-1.1785	-1.1785	11	-0.32736	0	0.32736	0.000000000000000E+000	0.32736	0.0000000E+000	0.000000000000000E+000	0.00194245
2	0	0	0	0	0	0	784.179	-0.700002	-0.700442	-2.77788	-1.20154	-1.20154	11	-0.333761	0	0.333761	0.000000000000000E+000	0.333761	0.0000000E+000	0.000000000000000E+000	0.00194574
2	0	0	0	0	0	0	792.479	-0.700002	-0.700422	-2.81121	-1.22475	-1.22475	11	-0.340208	0	0.340208	0.000000000000000E+000	0.340208	0.0000000E+000	0.000000000000000E+000	0.00196903
2	0	0	0	0	0	0	800.779	-0.700002	-0.700289	-2.81141	-1.24808	-1.24808	11	-0.34669	0	0.34669	0.000000000000000E+000	0.34669	0.0000000E+000	0.000000000000000E+000	0.0019688
2	0	0	0	0	0	0	809.079	-0.700002	-0.700575	-3.16713	-1.27381	-1.27381	11	-0.353837	0	0.353837	0.000000000000000E+000	0.353837	0.0000000E+000	0.000000000000000E+000	0.00221881
2	0	0	0	0	0	0	817.379	-0.700002	-0.700289	-3.15801	-1.30012	-1.30012	11	-0.361145	0	0.361145	0.000000000000000E+000	0.361145	0.0000000E+000	0.000000000000000E+000	0.00221152
2	0	0	0	0	0	0	825.679	-0.700002	-0.700518	-3.14582	-1.32627	-1.32627	11	-0.368409	0	0.368409	0.000000000000000E+000	0.368409	0.0000000E+000	0.000000000000000E+000	0.0022037
2	0	0	0	0	0	0	833.979	-0.700002	-0.700518	-3.12844	-1.3523	-1.3523	11	-0.375638	0	0.375638	0.000000000000000E+000	0.375638	0.0000000E+000	0.000000000000000E+000	0.00219153
2	0	0	0	0	0	0	842.279	-0.700002	-0.700499	-3.11114	-1.37818	-1.37818	11	-0.382827	0	0.382827	0.000000000000000E+000	0.382827	0.0000000E+000	0.000000000000000E+000	0.00217935
2	0	0	0	0	0	0	847.957	-0.700002	-0.70048	-3.0969	-1.3958	-1.3958	11	-0.387724	0	0.387724	0.000000000000000E+000	0.387724	0.0000000E+000	0.000000000000000E+000	0.00216931