Folder: Koutecky-Levich-for-ECH (part 4)

File: ZnPVAECH_08 03-10-22-GC ECH K-L 100 to 1600 rpm at -0_8V vs RHE RDE1(1).mpt
EC-Lab ASCII FILE
Nb header lines : 81

Chronoamperometry / Chronocoulometry

Run on channel : 5 (SN 6729)
User :
CE vs. WE compliance from -10 V to 10 V
Electrode connection : standard
Ewe ctrl range : min = -2.50 V, max = 2.50 V
Safety Limits :
	Do not start on E overload
Acquisition started on : 03/10/2022 15:18:22.916
Technique started on : 03/10/2022 15:18:23.016
Loaded Setting File :  NONE
Saved on :
	File : 03-10-22-GC ECH K-L 100 to 1600 rpm at -0_8V vs RHE RDE3 final but RDE2_C05.mpr
	Directory : G:\Mindy\Koutecky Levich\Zn PVA\ECH\03-10-22\
	Host : 35.9.136.176
Device : VSP (SN 0012)
Address : 35.9.137.65
EC-Lab for windows v11.36 (software)
Internet server v11.36 (firmware)
Command interpretor v11.36 (firmware)
Electrode material : Au/Pd
Initial state :
Electrolyte : NaCl (0.2M)
Comments : Fe(CN)63-/Fe(CN)64- 5.10-3 M
Reference electrode : SCE Saturated Calomel Electrode (0.241 V)
Electrode surface area : 0.196 cm²
Characteristic mass : 0.001 g
Equivalent Weight : 0.000 g/eq.
Density : 0.000 g/cm3
Record Analogic IN 1
Cycle Definition : Charge/Discharge alternance
External device configuration :
   device type : RDE
   device name : BluRev RDE
   Analog OUT :
      mode : E/V
      unit : speed/rpm
      max : 10000.000 at 10.000 V
      min : 0.000 at 0.000 V
      current : 1600.000
   Analog IN 1 :
      unit : speed/rpm
      max : 10000.000 at 10.000 V
      min : 0.000 at 0.000 V
Ei (V)              -0.800
vs.                 Ref
ti (h:m:s)          0:30:0.0000
Imax                pass
unit Imax           mA
Imin                pass
unit Imin           mA
dQM                 0.000
unit dQM            mA.h
record              <I>
dI                  5.000
unit dI             µA
dQ                  0.000
unit dQ             mA.h
dt (s)              0.1000
dta (s)             0.1000
E range min (V)     -2.500
E range max (V)     2.500
I Range             Auto
I Range min         Unset
I Range max         Unset
I Range init        Unset
Bandwidth           5
goto Ns'            0
nc cycles           0

Modify on : 03/10/2022 15:18
Ei (V)              -0.780

Modify on : 03/10/2022 15:18
Ei (V)              -0.770

mode	ox/red	error	control changes	Ns changes	counter inc.	Ns	time/s	control/V	Ewe/V	<I>/mA	dQ/C	(Q-Qo)/C	I Range	Q charge/discharge/mA.h	half cycle	Analog IN 1/V	Analog OUT/V	Q discharge/mA.h	Q charge/mA.h	Capacity/mA.h	Efficiency/%	cycle number	P/W
2	0	0	0	0	0	0	0.1	-0.800015	-0.800382	-5.10173	-0.000125095	-0.000125095	11	-3.47486e-05	0	-0.235721	1600	3.47486e-05	0.000000000000000E+000	3.47486e-05	0.0000000E+000	0.000000000000000E+000	0.00408333
2	0	0	0	0	0	0	3.9	-0.800015	-0.800096	-4.60039	-0.0178878	-0.0178878	11	-0.00496882	0	-0.102076	1600	0.00496882	0.000000000000000E+000	0.00496882	0.0000000E+000	0.000000000000000E+000	0.00368075
2	0	0	0	0	0	0	7.7	-0.800015	-0.800344	-4.52242	-0.0352135	-0.0352135	11	-0.00978152	0	-0.216629	1600	0.00978152	0.000000000000000E+000	0.00978152	0.0000000E+000	0.000000000000000E+000	0.00361949
2	0	0	0	0	0	0	11.5	-0.800015	-0.800306	-4.45595	-0.0522583	-0.0522583	11	-0.0145162	0	-0.350274	1600	0.0145162	0.000000000000000E+000	0.0145162	0.0000000E+000	0.000000000000000E+000	0.00356612
2	0	0	0	0	0	0	15.3	-0.800015	-0.80042	-4.40474	-0.0690867	-0.0690867	11	-0.0191908	0	-0.273906	1600	0.0191908	0.000000000000000E+000	0.0191908	0.0000000E+000	0.000000000000000E+000	0.00352565
2	0	0	1	0	0	0	19.1	-0.780006	-0.780527	-3.75403	-0.0842528	-0.0842528	11	-0.0234036	0	-0.216629	1600	0.0234036	0.000000000000000E+000	0.0234036	0.0000000E+000	0.000000000000000E+000	0.00293013
2	0	0	1	0	0	0	22.9	-0.780006	-0.780394	-3.71943	-0.0984484	-0.0984484	11	-0.0273468	0	-0.216629	1600	0.0273468	0.000000000000000E+000	0.0273468	0.0000000E+000	0.000000000000000E+000	0.00290262
2	0	0	0	0	0	0	26.7	-0.770002	-0.770314	-3.38746	-0.112473	-0.112473	11	-0.0312424	0	-0.178445	1600	0.0312424	0.000000000000000E+000	0.0312424	0.0000000E+000	0.000000000000000E+000	0.00260941
2	0	0	0	0	0	0	30.5	-0.770002	-0.770333	-3.36466	-0.12531	-0.12531	11	-0.0348083	0	-0.197537	1600	0.0348083	0.000000000000000E+000	0.0348083	0.0000000E+000	0.000000000000000E+000	0.00259191
2	0	0	0	0	0	0	34.3	-0.770002	-0.770409	-3.33922	-0.138042	-0.138042	11	-0.038345	0	-0.235721	1600	0.038345	0.000000000000000E+000	0.038345	0.0000000E+000	0.000000000000000E+000	0.00257257
2	0	0	0	0	0	0	38.1	-0.770002	-0.770466	-3.31631	-0.150682	-0.150682	11	-0.0418561	0	-0.273906	1600	0.0418561	0.000000000000000E+000	0.0418561	0.0000000E+000	0.000000000000000E+000	0.00255511
2	0	0	0	0	0	0	41.9	-0.770002	-0.77039	-3.29346	-0.163235	-0.163235	11	-0.045343	0	-0.197537	1600	0.045343	0.000000000000000E+000	0.045343	0.0000000E+000	0.000000000000000E+000	0.00253725
2	0	0	0	0	0	0	45.7	-0.770002	-0.770485	-3.10157	-0.175097	-0.175097	11	-0.0486382	0	-0.14026	1600	0.0486382	0.000000000000000E+000	0.0486382	0.0000000E+000	0.000000000000000E+000	0.00238972
2	0	0	0	0	0	0	49.5	-0.770002	-0.77039	-3.08564	-0.186857	-0.186857	11	-0.0519048	0	-0.254813	1600	0.0519048	0.000000000000000E+000	0.0519048	0.0000000E+000	0.000000000000000E+000	0.00237715
2	0	0	0	0	0	0	53.3	-0.770002	-0.770333	-3.07015	-0.198548	-0.198548	11	-0.0551523	0	-0.159353	1600	0.0551523	0.000000000000000E+000	0.0551523	0.0000000E+000	0.000000000000000E+000	0.00236504
2	0	0	0	0	0	0	57.1	-0.770002	-0.770237	-2.92249	-0.209851	-0.209851	11	-0.0582921	0	-0.273906	1600	0.0582921	0.000000000000000E+000	0.0582921	0.0000000E+000	0.000000000000000E+000	0.00225101
2	0	0	0	0	0	0	60.9	-0.770002	-0.77039	-2.91004	-0.220934	-0.220934	11	-0.0613705	0	-0.178445	1600	0.0613705	0.000000000000000E+000	0.0613705	0.0000000E+000	0.000000000000000E+000	0.00224187
2	0	0	0	0	0	0	64.7	-0.770002	-0.770294	-2.89868	-0.231966	-0.231966	11	-0.0644351	0	-0.235721	1600	0.0644351	0.000000000000000E+000	0.0644351	0.0000000E+000	0.000000000000000E+000	0.00223284
2	0	0	0	0	0	0	68.5	-0.770002	-0.770409	-2.61502	-0.242356	-0.242356	11	-0.0673212	0	-0.235721	1600	0.0673212	0.000000000000000E+000	0.0673212	0.0000000E+000	0.000000000000000E+000	0.00201464
2	0	0	0	0	0	0	72.3	-0.770002	-0.77039	-2.60285	-0.252274	-0.252274	11	-0.0700761	0	-0.216629	1600	0.0700761	0.000000000000000E+000	0.0700761	0.0000000E+000	0.000000000000000E+000	0.00200521
2	0	0	0	0	0	0	76.1	-0.770002	-0.770447	-2.59539	-0.26215	-0.26215	11	-0.0728195	0	-0.0638917	1600	0.0728195	0.000000000000000E+000	0.0728195	0.0000000E+000	0.000000000000000E+000	0.00199961
2	0	0	0	0	0	0	79.9	-0.770002	-0.770428	-2.58876	-0.271997	-0.271997	11	-0.0755547	0	-0.197537	1600	0.0755547	0.000000000000000E+000	0.0755547	0.0000000E+000	0.000000000000000E+000	0.00199445
2	0	0	0	0	0	0	83.7	-0.770002	-0.770352	-2.38753	-0.281551	-0.281551	11	-0.0782086	0	-0.31209	1600	0.0782086	0.000000000000000E+000	0.0782086	0.0000000E+000	0.000000000000000E+000	0.00183924
2	0	0	0	0	0	0	87.5	-0.770002	-0.770333	-2.37182	-0.290594	-0.290594	11	-0.0807207	0	-0.178445	1600	0.0807207	0.000000000000000E+000	0.0807207	0.0000000E+000	0.000000000000000E+000	0.00182709
2	0	0	0	0	0	0	91.3	-0.770002	-0.770352	-2.37291	-0.299605	-0.299605	11	-0.0832236	0	-0.292998	1600	0.0832236	0.000000000000000E+000	0.0832236	0.0000000E+000	0.000000000000000E+000	0.00182798
[...]
2	0	0	0	0	0	0	129.3	-0.770002	-0.77039	-2.08863	-0.377747	-0.377747	11	-0.10493	0	-0.216629	1600	0.10493	0.000000000000000E+000	0.10493	0.0000000E+000	0.000000000000000E+000	0.00160906
2	0	0	0	0	0	0	133.1	-0.770002	-0.770428	-2.07779	-0.385664	-0.385664	11	-0.107129	0	-0.159353	1600	0.107129	0.000000000000000E+000	0.107129	0.0000000E+000	0.000000000000000E+000	0.00160079
2	0	0	0	0	0	0	136.9	-0.770002	-0.77018	-2.31091	-0.393999	-0.393999	11	-0.109444	0	-0.31209	1600	0.109444	0.000000000000000E+000	0.109444	0.0000000E+000	0.000000000000000E+000	0.00177981
2	0	0	0	0	0	0	140.7	-0.770002	-0.770371	-2.3084	-0.402784	-0.402784	11	-0.111884	0	-0.216629	1600	0.111884	0.000000000000000E+000	0.111884	0.0000000E+000	0.000000000000000E+000	0.00177832
2	0	0	0	0	0	0	144.5	-0.770002	-0.770409	-2.30642	-0.411562	-0.411562	11	-0.114323	0	-0.331182	1600	0.114323	0.000000000000000E+000	0.114323	0.0000000E+000	0.000000000000000E+000	0.00177689
2	0	0	0	0	0	0	148.3	-0.770002	-0.770256	-2.49106	-0.420927	-0.420927	11	-0.116924	0	-0.14026	1600	0.116924	0.000000000000000E+000	0.116924	0.0000000E+000	0.000000000000000E+000	0.00191876
2	0	0	0	0	0	0	152.1	-0.770002	-0.770294	-2.48293	-0.43038	-0.43038	11	-0.11955	0	-0.14026	1600	0.11955	0.000000000000000E+000	0.11955	0.0000000E+000	0.000000000000000E+000	0.00191259
2	0	0	0	0	0	0	155.9	-0.770002	-0.77039	-2.67622	-0.439897	-0.439897	11	-0.122194	0	-0.31209	1600	0.122194	0.000000000000000E+000	0.122194	0.0000000E+000	0.000000000000000E+000	0.00206173
2	0	0	0	0	0	0	159.7	-0.770002	-0.770352	-2.71198	-0.45022	-0.45022	11	-0.125061	0	-0.102076	1600	0.125061	0.000000000000000E+000	0.125061	0.0000000E+000	0.000000000000000E+000	0.00208917
2	0	0	0	0	0	0	163.5	-0.770002	-0.77039	-2.70575	-0.460513	-0.460513	11	-0.12792	0	-0.254813	1600	0.12792	0.000000000000000E+000	0.12792	0.0000000E+000	0.000000000000000E+000	0.00208448
2	0	0	0	0	0	0	167.3	-0.770002	-0.77039	-2.70033	-0.470784	-0.470784	11	-0.130773	0	-0.178445	1600	0.130773	0.000000000000000E+000	0.130773	0.0000000E+000	0.000000000000000E+000	0.00208031
2	0	0	0	0	0	0	171.1	-0.770002	-0.770333	-2.80924	-0.481107	-0.481107	11	-0.133641	0	-0.197537	1600	0.133641	0.000000000000000E+000	0.133641	0.0000000E+000	0.000000000000000E+000	0.00216405
2	0	0	0	0	0	0	174.9	-0.770002	-0.770409	-2.79667	-0.491751	-0.491751	11	-0.136597	0	-0.235721	1600	0.136597	0.000000000000000E+000	0.136597	0.0000000E+000	0.000000000000000E+000	0.00215458
2	0	0	0	0	0	0	178.7	-0.770002	-0.770314	-2.78924	-0.502365	-0.502365	11	-0.139546	0	-0.159353	1600	0.139546	0.000000000000000E+000	0.139546	0.0000000E+000	0.000000000000000E+000	0.00214859
2	0	0	0	0	0	0	182.5	-0.770002	-0.770466	-2.78176	-0.512954	-0.512954	11	-0.142487	0	-0.216629	1600	0.142487	0.000000000000000E+000	0.142487	0.0000000E+000	0.000000000000000E+000	0.00214325
2	0	0	0	0	0	0	186.3	-0.770002	-0.770352	-2.9092	-0.523847	-0.523847	11	-0.145513	0	-0.273906	1600	0.145513	0.000000000000000E+000	0.145513	0.0000000E+000	0.000000000000000E+000	0.00224111
2	0	0	0	0	0	0	190.1	-0.770002	-0.77018	-2.90042	-0.534882	-0.534882	11	-0.148578	0	-0.178445	1600	0.148578	0.000000000000000E+000	0.148578	0.0000000E+000	0.000000000000000E+000	0.00223384
2	0	0	0	0	0	0	193.9	-0.770002	-0.770466	-2.8923	-0.545888	-0.545888	11	-0.151635	0	-0.14026	1600	0.151635	0.000000000000000E+000	0.151635	0.0000000E+000	0.000000000000000E+000	0.00222842
2	0	0	0	0	0	0	197.268	-0.770002	-0.770371	-2.88438	-0.555623	-0.555623	11	-0.15434	0	-0.197537	1600	0.15434	0.000000000000000E+000	0.15434	INF	0.000000000000000E+000	0.00222204

File: ZnPVAECH_08 03-10-22-ZnPVA ECH K-L 100 to 1600 rpm at -0_8V vs RHE RDE2_C05(1).mpt
EC-Lab ASCII FILE
Nb header lines : 81

Chronoamperometry / Chronocoulometry

Run on channel : 5 (SN 6729)
User :
CE vs. WE compliance from -10 V to 10 V
Electrode connection : standard
Ewe ctrl range : min = -10.00 V, max = 10.00 V
Safety Limits :
	Do not start on E overload
Acquisition started on : 03/10/2022 14:52:03.616
Technique started on : 03/10/2022 14:52:03.716
Loaded Setting File :  NONE
Saved on :
	File : 03-10-22-GC ECH K-L 100 to 1600 rpm at -0_8V vs RHE RDE2_C05.mpr
	Directory : G:\Mindy\Koutecky Levich\Zn PVA\ECH\03-10-22\
	Host : 35.9.136.176
Device : VSP (SN 0012)
Address : 35.9.137.65
EC-Lab for windows v11.36 (software)
Internet server v11.36 (firmware)
Command interpretor v11.36 (firmware)
Electrode material : Au/Pd
Initial state :
Electrolyte : NaCl (0.2M)
Comments : Fe(CN)63-/Fe(CN)64- 5.10-3 M
Reference electrode : SCE Saturated Calomel Electrode (0.241 V)
Electrode surface area : 0.196 cm²
Characteristic mass : 0.001 g
Equivalent Weight : 0.000 g/eq.
Density : 0.000 g/cm3
Record Analogic IN 1
Cycle Definition : Charge/Discharge alternance
External device configuration :
   device type : RDE
   device name : BluRev RDE
   Analog OUT :
      mode : E/V
      unit : speed/rpm
      max : 10000.000 at 10.000 V
      min : 0.000 at 0.000 V
      current : 1600.000
   Analog IN 1 :
      unit : speed/rpm
      max : 10000.000 at 10.000 V
      min : 0.000 at 0.000 V
Ei (V)              -1.000
vs.                 Ref
ti (h:m:s)          0:30:0.0000
Imax                pass
unit Imax           mA
Imin                pass
unit Imin           mA
dQM                 0.000
unit dQM            mA.h
record              <I>
dI                  5.000
unit dI             µA
dQ                  0.000
unit dQ             mA.h
dt (s)              0.1000
dta (s)             0.1000
E range min (V)     -10.000
E range max (V)     10.000
I Range             Auto
I Range min         Unset
I Range max         Unset
I Range init        Unset
Bandwidth           5
goto Ns'            0
nc cycles           0

Modify on : 03/10/2022 14:52
Ei (V)              -0.850

Modify on : 03/10/2022 14:52
Ei (V)              -0.800

mode	ox/red	error	control changes	Ns changes	counter inc.	Ns	time/s	control/V	Ewe/V	<I>/mA	dQ/C	(Q-Qo)/C	I Range	Q charge/discharge/mA.h	half cycle	Analog IN 1/V	Analog OUT/V	Q discharge/mA.h	Q charge/mA.h	Capacity/mA.h	Efficiency/%	cycle number	P/W
2	0	0	1	0	0	0	0.1	-1.00001	-1.0001	-10.283	-0.000167588	-0.000167588	11	-4.65523e-05	0	-0.292998	1600	4.65523e-05	0.000000000000000E+000	4.65523e-05	0.0000000E+000	0.000000000000000E+000	0.0102839
2	0	0	1	0	0	0	3.9	-1.00001	-1.00029	-9.60895	-0.0367089	-0.0367089	11	-0.0101969	0	-0.235721	1600	0.0101969	0.000000000000000E+000	0.0101969	0.0000000E+000	0.000000000000000E+000	0.00961171
2	0	0	1	0	0	0	7.7	-1.00001	-1.00023	-9.58529	-0.0731507	-0.0731507	11	-0.0203196	0	-0.216629	1600	0.0203196	0.000000000000000E+000	0.0203196	0.0000000E+000	0.000000000000000E+000	0.0095875
2	0	0	1	0	0	0	11.5	-1.00001	-1.00029	-9.55702	-0.109526	-0.109526	11	-0.0304238	0	-0.273906	1600	0.0304238	0.000000000000000E+000	0.0304238	0.0000000E+000	0.000000000000000E+000	0.00955977
2	0	0	1	0	0	0	15.3	-1.00001	-1.00048	-9.5589	-0.145863	-0.145863	11	-0.0405174	0	-0.254813	1600	0.0405174	0.000000000000000E+000	0.0405174	0.0000000E+000	0.000000000000000E+000	0.00956347
2	0	0	0	0	0	0	19.1	-0.850006	-0.850306	-5.07729	-0.168199	-0.168199	10	-0.0467221	0	-0.197537	1600	0.0467221	0.000000000000000E+000	0.0467221	0.0000000E+000	0.000000000000000E+000	0.00431726
2	0	0	0	0	0	0	22.9	-0.850006	-0.850287	-5.0388	-0.187416	-0.187416	10	-0.05206	0	-0.197537	1600	0.05206	0.000000000000000E+000	0.05206	0.0000000E+000	0.000000000000000E+000	0.00428443
2	0	0	0	0	0	0	26.7	-0.850006	-0.85044	-5.01953	-0.206533	-0.206533	10	-0.0573701	0	-0.216629	1600	0.0573701	0.000000000000000E+000	0.0573701	0.0000000E+000	0.000000000000000E+000	0.00426881
2	0	0	1	0	0	0	30.509	-0.800108	-0.800535	-3.49631	-0.222975	-0.222975	11	-0.0619376	0	-0.159353	1600	0.0619376	0.000000000000000E+000	0.0619376	0.0000000E+000	0.000000000000000E+000	0.00279892
2	0	0	1	0	0	0	34.309	-0.800108	-0.800535	-3.4775	-0.236212	-0.236212	11	-0.0656145	0	-0.159353	1600	0.0656145	0.000000000000000E+000	0.0656145	0.0000000E+000	0.000000000000000E+000	0.00278386
2	0	0	1	0	0	0	38.109	-0.800108	-0.800497	-3.45379	-0.249381	-0.249381	11	-0.0692726	0	-0.254813	1600	0.0692726	0.000000000000000E+000	0.0692726	0.0000000E+000	0.000000000000000E+000	0.00276475
2	0	0	1	0	0	0	41.909	-0.800108	-0.800459	-3.28062	-0.262248	-0.262248	11	-0.0728466	0	-0.235721	1600	0.0728466	0.000000000000000E+000	0.0728466	0.0000000E+000	0.000000000000000E+000	0.002626
2	0	0	1	0	0	0	45.709	-0.800108	-0.800383	-3.27256	-0.274702	-0.274702	11	-0.0763061	0	-0.197537	1600	0.0763061	0.000000000000000E+000	0.0763061	0.0000000E+000	0.000000000000000E+000	0.0026193
2	0	0	1	0	0	0	49.509	-0.800108	-0.80044	-3.25211	-0.287099	-0.287099	11	-0.0797498	0	-0.159353	1600	0.0797498	0.000000000000000E+000	0.0797498	0.0000000E+000	0.000000000000000E+000	0.00260312
2	0	0	1	0	0	0	53.309	-0.800108	-0.800421	-3.23747	-0.299432	-0.299432	11	-0.0831755	0	-0.216629	1600	0.0831755	0.000000000000000E+000	0.0831755	0.0000000E+000	0.000000000000000E+000	0.00259134
2	0	0	1	0	0	0	57.109	-0.800108	-0.800497	-3.10736	-0.311322	-0.311322	11	-0.0864784	0	-0.197537	1600	0.0864784	0.000000000000000E+000	0.0864784	0.0000000E+000	0.000000000000000E+000	0.00248743
2	0	0	1	0	0	0	60.909	-0.800108	-0.800364	-3.09364	-0.323101	-0.323101	11	-0.0897504	0	-0.235721	1600	0.0897504	0.000000000000000E+000	0.0897504	0.0000000E+000	0.000000000000000E+000	0.00247604
2	0	0	1	0	0	0	64.709	-0.800108	-0.800364	-3.08677	-0.334845	-0.334845	11	-0.0930125	0	-0.0638917	1600	0.0930125	0.000000000000000E+000	0.0930125	0.0000000E+000	0.000000000000000E+000	0.00247054
2	0	0	1	0	0	0	68.509	-0.800108	-0.800402	-2.81718	-0.345796	-0.345796	11	-0.0960544	0	-0.235721	1600	0.0960544	0.000000000000000E+000	0.0960544	0.0000000E+000	0.000000000000000E+000	0.00225488
2	0	0	1	0	0	0	72.309	-0.800108	-0.800402	-2.80684	-0.356493	-0.356493	11	-0.0990257	0	-0.273906	1600	0.0990257	0.000000000000000E+000	0.0990257	0.0000000E+000	0.000000000000000E+000	0.0022466
2	0	0	1	0	0	0	76.109	-0.800108	-0.800593	-2.80313	-0.367155	-0.367155	11	-0.101988	0	-0.14026	1600	0.101988	0.000000000000000E+000	0.101988	0.0000000E+000	0.000000000000000E+000	0.00224416
2	0	0	1	0	0	0	79.909	-0.800108	-0.800325	-2.80265	-0.3778	-0.3778	11	-0.104944	0	-0.102076	1600	0.104944	0.000000000000000E+000	0.104944	0.0000000E+000	0.000000000000000E+000	0.00224303
2	0	0	1	0	0	0	83.709	-0.800108	-0.800459	-2.59546	-0.38798	-0.38798	11	-0.107772	0	-0.31209	1600	0.107772	0.000000000000000E+000	0.107772	0.0000000E+000	0.000000000000000E+000	0.00207756
2	0	0	1	0	0	0	87.509	-0.800108	-0.800402	-2.58117	-0.397831	-0.397831	11	-0.110509	0	-0.14026	1600	0.110509	0.000000000000000E+000	0.110509	0.0000000E+000	0.000000000000000E+000	0.00206597
2	0	0	1	0	0	0	91.309	-0.800108	-0.800421	-2.578	-0.407652	-0.407652	11	-0.113237	0	-0.273906	1600	0.113237	0.000000000000000E+000	0.113237	0.0000000E+000	0.000000000000000E+000	0.00206349
[...]
2	0	0	1	0	0	0	129.309	-0.800108	-0.800364	-2.27748	-0.493418	-0.493418	11	-0.137061	0	-0.14026	1600	0.137061	0.000000000000000E+000	0.137061	0.0000000E+000	0.000000000000000E+000	0.00182281
2	0	0	1	0	0	0	133.109	-0.800108	-0.80044	-2.27768	-0.502057	-0.502057	11	-0.13946	0	-0.235721	1600	0.13946	0.000000000000000E+000	0.13946	0.0000000E+000	0.000000000000000E+000	0.00182314
2	0	0	1	0	0	0	136.909	-0.800108	-0.800345	-2.51158	-0.511275	-0.511275	11	-0.142021	0	-0.31209	1600	0.142021	0.000000000000000E+000	0.142021	0.0000000E+000	0.000000000000000E+000	0.00201013
2	0	0	1	0	0	0	140.709	-0.800108	-0.800345	-2.50036	-0.520782	-0.520782	11	-0.144662	0	-0.178445	1600	0.144662	0.000000000000000E+000	0.144662	0.0000000E+000	0.000000000000000E+000	0.00200115
2	0	0	1	0	0	0	144.509	-0.800108	-0.800421	-2.50195	-0.530267	-0.530267	11	-0.147296	0	-0.197537	1600	0.147296	0.000000000000000E+000	0.147296	0.0000000E+000	0.000000000000000E+000	0.00200262
2	0	0	1	0	0	0	148.309	-0.800108	-0.800345	-2.67275	-0.540377	-0.540377	11	-0.150105	0	-0.235721	1600	0.150105	0.000000000000000E+000	0.150105	0.0000000E+000	0.000000000000000E+000	0.00213912
2	0	0	1	0	0	0	152.109	-0.800108	-0.800402	-2.66685	-0.550536	-0.550536	11	-0.152927	0	-0.159353	1600	0.152927	0.000000000000000E+000	0.152927	0.0000000E+000	0.000000000000000E+000	0.00213455
2	0	0	1	0	0	0	155.909	-0.800108	-0.80044	-2.81123	-0.560723	-0.560723	11	-0.155756	0	-0.121168	1600	0.155756	0.000000000000000E+000	0.155756	0.0000000E+000	0.000000000000000E+000	0.00225022
2	0	0	1	0	0	0	159.709	-0.800108	-0.800306	-2.899	-0.571737	-0.571737	11	-0.158816	0	-0.235721	1600	0.158816	0.000000000000000E+000	0.158816	0.0000000E+000	0.000000000000000E+000	0.00232009
2	0	0	1	0	0	0	163.509	-0.800108	-0.800421	-2.88944	-0.582731	-0.582731	11	-0.16187	0	-0.197537	1600	0.16187	0.000000000000000E+000	0.16187	0.0000000E+000	0.000000000000000E+000	0.00231277
2	0	0	1	0	0	0	167.309	-0.800108	-0.800516	-2.87905	-0.593695	-0.593695	11	-0.164915	0	-0.159353	1600	0.164915	0.000000000000000E+000	0.164915	0.0000000E+000	0.000000000000000E+000	0.00230472
2	0	0	1	0	0	0	171.109	-0.800108	-0.800364	-2.98142	-0.604814	-0.604814	11	-0.168004	0	-0.254813	1600	0.168004	0.000000000000000E+000	0.168004	0.0000000E+000	0.000000000000000E+000	0.00238622
2	0	0	1	0	0	0	174.909	-0.800108	-0.800421	-2.9704	-0.616128	-0.616128	11	-0.171147	0	-0.14026	1600	0.171147	0.000000000000000E+000	0.171147	0.0000000E+000	0.000000000000000E+000	0.00237757
2	0	0	1	0	0	0	178.709	-0.800108	-0.800345	-2.96781	-0.627409	-0.627409	11	-0.17428	0	-0.178445	1600	0.17428	0.000000000000000E+000	0.17428	0.0000000E+000	0.000000000000000E+000	0.00237527
2	0	0	1	0	0	0	182.509	-0.800108	-0.80044	-2.958	-0.63866	-0.63866	11	-0.177405	0	-0.159353	1600	0.177405	0.000000000000000E+000	0.177405	0.0000000E+000	0.000000000000000E+000	0.0023677
2	0	0	1	0	0	0	186.309	-0.800108	-0.800325	-3.0868	-0.650273	-0.650273	11	-0.180631	0	-0.331182	1600	0.180631	0.000000000000000E+000	0.180631	0.0000000E+000	0.000000000000000E+000	0.00247045
2	0	0	1	0	0	0	190.109	-0.800108	-0.800459	-3.07272	-0.661972	-0.661972	11	-0.183881	0	-0.14026	1600	0.183881	0.000000000000000E+000	0.183881	0.0000000E+000	0.000000000000000E+000	0.00245959
2	0	0	1	0	0	0	193.909	-0.800108	-0.800574	-3.06111	-0.673628	-0.673628	11	-0.187119	0	-0.102076	1600	0.187119	0.000000000000000E+000	0.187119	0.0000000E+000	0.000000000000000E+000	0.00245065
2	0	0	1	0	0	0	195.491	-0.800108	-0.800306	-3.05805	-0.67847	-0.67847	11	-0.188464	0	-0.254813	1600	0.188464	0.000000000000000E+000	0.188464	INF	0.000000000000000E+000	0.00244737