Folder: Koutecky-Levich-for-ECH (part 6)

File: ZnPVAECH_09 04-22-22-Zn -09 PVA ECH 1600 rpm K-L RDE1 gc_03_CA_C05(1).mpt
EC-Lab ASCII FILE
Nb header lines : 63

Chronoamperometry / Chronocoulometry

Run on channel : 5 (SN 6729)
User :
CE vs. WE compliance from -10 V to 10 V
Electrode connection : standard
Potential control : Ewe
Ewe ctrl range : min = -2.50 V, max = 2.50 V
Safety Limits :
	Do not start on E overload
Acquisition started on : 04/04/2022 13:04:27.143
Technique started on : 04/04/2022 13:08:40.435
Loaded Setting File :  NONE
Saved on :
	File : 04-22-22-Zn PVA ECH 1600 rpm K-L RDE1 gc_03_CA_C05.mpr
	Directory : \\research-scb.egr.msu.edu\research-scb\Mindy\Koutecky Levich\Zn PVA\ECH\04-04-22\
	Host : 35.9.136.210
Device : VSP (SN 0012)
Address : 35.9.137.65
EC-Lab for windows v11.43 (software)
Internet server v11.40 (firmware)
Command interpretor v11.40 (firmware)
Electrode material : Au/Pd
Initial state :
Electrolyte : NaCl (0.2M)
Comments : Fe(CN)63-/Fe(CN)64- 5.10-3 M
Reference electrode : SCE Saturated Calomel Electrode (0.241 V)
Electrode surface area : 0.196 cm²
Characteristic mass : 0.001 g
Equivalent Weight : 0.000 g/eq.
Density : 0.000 g/cm3
Volume (V) : 0.001 cm³
Cycle Definition : Charge/Discharge alternance
Ei (V)              -0.900
vs.                 Ref
ti (h:m:s)          0:10:0.0000
Imax                pass
unit Imax           mA
Imin                pass
unit Imin           mA
dQM                 0.000
unit dQM            mA.h
record              <I>
dI                  5.000
unit dI             µA
dQ                  0.000
unit dQ             mA.h
dt (s)              0.1000
dta (s)             0.1000
E range min (V)     -2.500
E range max (V)     2.500
I Range             Auto
I Range min         Unset
I Range max         Unset
I Range init        Unset
Bandwidth           5
goto Ns'            0
nc cycles           0

mode	ox/red	error	control changes	Ns changes	counter inc.	Ns	time/s	control/V	Ewe/V	<I>/mA	dQ/C	(Q-Qo)/C	I Range	Q charge/discharge/mA.h	half cycle	Q discharge/mA.h	Q charge/mA.h	Capacity/mA.h	Efficiency/%	cycle number	P/W
2	0	0	1	0	0	0	253.292	-0.899966	-0.900248	-4.69096	-0.000122553	-0.000122553	11	-3.40425e-05	0	3.40425e-05	0.000000000000000E+000	3.40425e-05	0.0000000E+000	0.000000000000000E+000	0.00422303
2	0	0	1	0	0	0	257.792	-0.899966	-0.900496	-4.58812	-0.020808	-0.020808	11	-0.00578	0	0.00578	0.000000000000000E+000	0.00578	0.0000000E+000	0.000000000000000E+000	0.00413158
2	0	0	1	0	0	0	262.292	-0.899966	-0.900611	-4.59044	-0.0414674	-0.0414674	11	-0.0115187	0	0.0115187	0.000000000000000E+000	0.0115187	0.0000000E+000	0.000000000000000E+000	0.0041342
2	0	0	1	0	0	0	266.792	-0.899966	-0.900248	-4.59597	-0.0621282	-0.0621282	11	-0.0172578	0	0.0172578	0.000000000000000E+000	0.0172578	0.0000000E+000	0.000000000000000E+000	0.00413751
2	0	0	1	0	0	0	271.292	-0.899966	-0.900458	-4.42584	-0.0825041	-0.0825041	11	-0.0229178	0	0.0229178	0.000000000000000E+000	0.0229178	0.0000000E+000	0.000000000000000E+000	0.00398528
2	0	0	1	0	0	0	275.792	-0.899966	-0.900515	-4.41841	-0.102394	-0.102394	11	-0.0284429	0	0.0284429	0.000000000000000E+000	0.0284429	0.0000000E+000	0.000000000000000E+000	0.00397885
2	0	0	1	0	0	0	280.292	-0.899966	-0.900573	-4.40969	-0.122273	-0.122273	11	-0.0339648	0	0.0339648	0.000000000000000E+000	0.0339648	0.0000000E+000	0.000000000000000E+000	0.00397125
2	0	0	1	0	0	0	284.792	-0.899966	-0.900305	-4.28167	-0.14181	-0.14181	11	-0.0393917	0	0.0393917	0.000000000000000E+000	0.0393917	0.0000000E+000	0.000000000000000E+000	0.00385481
2	0	0	1	0	0	0	289.292	-0.899966	-0.900515	-4.2762	-0.161061	-0.161061	11	-0.0447392	0	0.0447392	0.000000000000000E+000	0.0447392	0.0000000E+000	0.000000000000000E+000	0.00385078
2	0	0	1	0	0	0	293.792	-0.899966	-0.900458	-4.27052	-0.180287	-0.180287	11	-0.0500797	0	0.0500797	0.000000000000000E+000	0.0500797	0.0000000E+000	0.000000000000000E+000	0.00384543
2	0	0	1	0	0	0	298.292	-0.899966	-0.900458	-3.96116	-0.199134	-0.199134	11	-0.0553151	0	0.0553151	0.000000000000000E+000	0.0553151	0.0000000E+000	0.000000000000000E+000	0.00356686
2	0	0	1	0	0	0	302.792	-0.899966	-0.900343	-3.95091	-0.216853	-0.216853	11	-0.0602369	0	0.0602369	0.000000000000000E+000	0.0602369	0.0000000E+000	0.000000000000000E+000	0.00355717
2	0	0	1	0	0	0	307.292	-0.899966	-0.900229	-3.91662	-0.234556	-0.234556	11	-0.0651545	0	0.0651545	0.000000000000000E+000	0.0651545	0.0000000E+000	0.000000000000000E+000	0.00352586
2	0	0	1	0	0	0	311.792	-0.899966	-0.900859	-3.92504	-0.252258	-0.252258	11	-0.0700716	0	0.0700716	0.000000000000000E+000	0.0700716	0.0000000E+000	0.000000000000000E+000	0.00353591
2	0	0	1	0	0	0	316.292	-0.899966	-0.900305	-3.62539	-0.269071	-0.269071	11	-0.074742	0	0.074742	0.000000000000000E+000	0.074742	0.0000000E+000	0.000000000000000E+000	0.00326396
2	0	0	1	0	0	0	320.792	-0.899966	-0.900382	-3.65148	-0.285442	-0.285442	11	-0.0792894	0	0.0792894	0.000000000000000E+000	0.0792894	0.0000000E+000	0.000000000000000E+000	0.00328772
2	0	0	1	0	0	0	325.292	-0.899966	-0.900592	-3.61119	-0.301792	-0.301792	11	-0.0838312	0	0.0838312	0.000000000000000E+000	0.0838312	0.0000000E+000	0.000000000000000E+000	0.00325221
2	0	0	1	0	0	0	329.792	-0.899966	-0.900286	-3.17358	-0.317236	-0.317236	11	-0.0881212	0	0.0881212	0.000000000000000E+000	0.0881212	0.0000000E+000	0.000000000000000E+000	0.00285713
2	0	0	1	0	0	0	334.292	-0.899966	-0.900553	-3.20196	-0.331631	-0.331631	11	-0.0921198	0	0.0921198	0.000000000000000E+000	0.0921198	0.0000000E+000	0.000000000000000E+000	0.00288354
2	0	0	1	0	0	0	338.792	-0.899966	-0.900477	-3.19179	-0.346064	-0.346064	11	-0.0961289	0	0.0961289	0.000000000000000E+000	0.0961289	0.0000000E+000	0.000000000000000E+000	0.00287413
2	0	0	1	0	0	0	343.292	-0.899966	-0.900439	-3.23252	-0.360511	-0.360511	11	-0.100142	0	0.100142	0.000000000000000E+000	0.100142	0.0000000E+000	0.000000000000000E+000	0.00291068
2	0	0	1	0	0	0	347.792	-0.899966	-0.900343	-2.85184	-0.374146	-0.374146	11	-0.10393	0	0.10393	0.000000000000000E+000	0.10393	0.0000000E+000	0.000000000000000E+000	0.00256763
2	0	0	1	0	0	0	352.292	-0.899966	-0.900515	-2.83066	-0.386953	-0.386953	11	-0.107487	0	0.107487	0.000000000000000E+000	0.107487	0.0000000E+000	0.000000000000000E+000	0.00254905
2	0	0	1	0	0	0	356.792	-0.899966	-0.900439	-2.8586	-0.399748	-0.399748	11	-0.111041	0	0.111041	0.000000000000000E+000	0.111041	0.0000000E+000	0.000000000000000E+000	0.002574
2	0	0	1	0	0	0	361.292	-0.899966	-0.900362	-2.84997	-0.412545	-0.412545	11	-0.114596	0	0.114596	0.000000000000000E+000	0.114596	0.0000000E+000	0.000000000000000E+000	0.00256601
2	0	0	1	0	0	0	365.792	-0.899966	-0.900229	-2.84025	-0.425354	-0.425354	11	-0.118154	0	0.118154	0.000000000000000E+000	0.118154	0.0000000E+000	0.000000000000000E+000	0.00255688
2	0	0	1	0	0	0	370.292	-0.899966	-0.900401	-3.18481	-0.438621	-0.438621	11	-0.121839	0	0.121839	0.000000000000000E+000	0.121839	0.0000000E+000	0.000000000000000E+000	0.0028676
2	0	0	1	0	0	0	374.792	-0.899966	-0.900382	-3.18237	-0.453013	-0.453013	11	-0.125837	0	0.125837	0.000000000000000E+000	0.125837	0.0000000E+000	0.000000000000000E+000	0.00286535
2	0	0	1	0	0	0	379.292	-0.899966	-0.900362	-3.2216	-0.467417	-0.467417	11	-0.129838	0	0.129838	0.000000000000000E+000	0.129838	0.0000000E+000	0.000000000000000E+000	0.00290061
2	0	0	1	0	0	0	383.792	-0.899966	-0.900324	-3.20336	-0.481808	-0.481808	11	-0.133836	0	0.133836	0.000000000000000E+000	0.133836	0.0000000E+000	0.000000000000000E+000	0.00288406
[...]
2	0	0	1	0	0	0	419.792	-0.899966	-0.900305	-3.58828	-0.602467	-0.602467	11	-0.167352	0	0.167352	0.000000000000000E+000	0.167352	0.0000000E+000	0.000000000000000E+000	0.00323055
2	0	0	1	0	0	0	424.292	-0.899966	-0.900401	-3.89838	-0.619716	-0.619716	11	-0.172143	0	0.172143	0.000000000000000E+000	0.172143	0.0000000E+000	0.000000000000000E+000	0.00351011
2	0	0	1	0	0	0	428.792	-0.899966	-0.900477	-3.91234	-0.637218	-0.637218	11	-0.177005	0	0.177005	0.000000000000000E+000	0.177005	0.0000000E+000	0.000000000000000E+000	0.00352297
2	0	0	1	0	0	0	433.292	-0.899966	-0.90021	-3.87142	-0.654702	-0.654702	11	-0.181862	0	0.181862	0.000000000000000E+000	0.181862	0.0000000E+000	0.000000000000000E+000	0.00348509
2	0	0	1	0	0	0	437.792	-0.899966	-0.900592	-3.8593	-0.672166	-0.672166	11	-0.186713	0	0.186713	0.000000000000000E+000	0.186713	0.0000000E+000	0.000000000000000E+000	0.00347565
2	0	0	1	0	0	0	442.292	-0.899966	-0.90042	-3.88235	-0.689624	-0.689624	11	-0.191562	0	0.191562	0.000000000000000E+000	0.191562	0.0000000E+000	0.000000000000000E+000	0.00349574
2	0	0	1	0	0	0	446.792	-0.899966	-0.900477	-3.90341	-0.707093	-0.707093	11	-0.196415	0	0.196415	0.000000000000000E+000	0.196415	0.0000000E+000	0.000000000000000E+000	0.00351494
2	0	0	1	0	0	0	451.292	-0.899966	-0.900305	-4.20226	-0.725774	-0.725774	11	-0.201604	0	0.201604	0.000000000000000E+000	0.201604	0.0000000E+000	0.000000000000000E+000	0.00378331
2	0	0	1	0	0	0	455.792	-0.899966	-0.900343	-4.20011	-0.744677	-0.744677	11	-0.206855	0	0.206855	0.000000000000000E+000	0.206855	0.0000000E+000	0.000000000000000E+000	0.00378154
2	0	0	1	0	0	0	460.292	-0.899966	-0.900573	-4.19769	-0.763567	-0.763567	11	-0.212102	0	0.212102	0.000000000000000E+000	0.212102	0.0000000E+000	0.000000000000000E+000	0.00378032
2	0	0	1	0	0	0	464.792	-0.899966	-0.900515	-4.19265	-0.782452	-0.782452	11	-0.217348	0	0.217348	0.000000000000000E+000	0.217348	0.0000000E+000	0.000000000000000E+000	0.00377554
2	0	0	1	0	0	0	469.292	-0.899966	-0.900515	-4.19054	-0.80131	-0.80131	11	-0.222586	0	0.222586	0.000000000000000E+000	0.222586	0.0000000E+000	0.000000000000000E+000	0.00377364
2	0	0	1	0	0	0	473.792	-0.899966	-0.900611	-3.97879	-0.82006	-0.82006	11	-0.227794	0	0.227794	0.000000000000000E+000	0.227794	0.0000000E+000	0.000000000000000E+000	0.00358334
2	0	0	1	0	0	0	478.292	-0.899966	-0.900382	-3.88285	-0.837485	-0.837485	11	-0.232635	0	0.232635	0.000000000000000E+000	0.232635	0.0000000E+000	0.000000000000000E+000	0.00349605
2	0	0	1	0	0	0	482.792	-0.899966	-0.900859	-4.31312	-0.856078	-0.856078	11	-0.237799	0	0.237799	0.000000000000000E+000	0.237799	0.0000000E+000	0.000000000000000E+000	0.00388552
2	0	0	1	0	0	0	487.292	-0.899966	-0.900515	-4.31725	-0.875476	-0.875476	11	-0.243188	0	0.243188	0.000000000000000E+000	0.243188	0.0000000E+000	0.000000000000000E+000	0.00388775
2	0	0	1	0	0	0	491.792	-0.899966	-0.900534	-4.31198	-0.894873	-0.894873	11	-0.248576	0	0.248576	0.000000000000000E+000	0.248576	0.0000000E+000	0.000000000000000E+000	0.00388309
2	0	0	1	0	0	0	496.292	-0.899966	-0.900114	-4.44719	-0.914872	-0.914872	11	-0.254131	0	0.254131	0.000000000000000E+000	0.254131	0.0000000E+000	0.000000000000000E+000	0.00400298
2	0	0	1	0	0	0	500.792	-0.899966	-0.90042	-4.43565	-0.934872	-0.934872	11	-0.259687	0	0.259687	0.000000000000000E+000	0.259687	0.0000000E+000	0.000000000000000E+000	0.00399394
2	0	0	1	0	0	0	504.785	-0.899966	-0.900153	-4.439	-0.952593	-0.952593	11	-0.264609	0	0.264609	0.000000000000000E+000	0.264609	0.0000000E+000	0.000000000000000E+000	0.00399578

File: ZnPVAECH_09 04-22-22-Zn -09 PVA ECH 1600 rpm K-L RDE1_03_CA_C05(1).mpt
EC-Lab ASCII FILE
Nb header lines : 63

Chronoamperometry / Chronocoulometry

Run on channel : 5 (SN 6729)
User :
CE vs. WE compliance from -10 V to 10 V
Electrode connection : standard
Potential control : Ewe
Ewe ctrl range : min = -2.50 V, max = 2.50 V
Safety Limits :
	Do not start on E overload
Acquisition started on : 04/04/2022 12:47:39.364
Technique started on : 04/04/2022 12:56:21.845
Loaded Setting File :  NONE
Saved on :
	File : 04-22-22-Zn PVA ECH 1600 rpm K-L RDE1_03_CA_C05.mpr
	Directory : \\research-scb.egr.msu.edu\research-scb\Mindy\Koutecky Levich\Zn PVA\ECH\04-04-22\
	Host : 35.9.136.210
Device : VSP (SN 0012)
Address : 35.9.137.65
EC-Lab for windows v11.43 (software)
Internet server v11.40 (firmware)
Command interpretor v11.40 (firmware)
Electrode material : Au/Pd
Initial state :
Electrolyte : NaCl (0.2M)
Comments : Fe(CN)63-/Fe(CN)64- 5.10-3 M
Reference electrode : SCE Saturated Calomel Electrode (0.241 V)
Electrode surface area : 0.196 cm²
Characteristic mass : 0.001 g
Equivalent Weight : 0.000 g/eq.
Density : 0.000 g/cm3
Volume (V) : 0.001 cm³
Cycle Definition : Charge/Discharge alternance
Ei (V)              -0.900
vs.                 Ref
ti (h:m:s)          0:10:0.0000
Imax                pass
unit Imax           mA
Imin                pass
unit Imin           mA
dQM                 0.000
unit dQM            mA.h
record              <I>
dI                  5.000
unit dI             µA
dQ                  0.000
unit dQ             mA.h
dt (s)              0.1000
dta (s)             0.1000
E range min (V)     -2.500
E range max (V)     2.500
I Range             Auto
I Range min         Unset
I Range max         Unset
I Range init        Unset
Bandwidth           5
goto Ns'            0
nc cycles           0

mode	ox/red	error	control changes	Ns changes	counter inc.	Ns	time/s	control/V	Ewe/V	<I>/mA	dQ/C	(Q-Qo)/C	I Range	Q charge/discharge/mA.h	half cycle	Q discharge/mA.h	Q charge/mA.h	Capacity/mA.h	Efficiency/%	cycle number	P/W
2	0	0	1	0	0	0	522.481	-0.899966	-0.900553	-4.82654	-0.000123839	-0.000123839	11	-3.43997e-05	0	3.43997e-05	0.000000000000000E+000	3.43997e-05	0.0000000E+000	0.000000000000000E+000	0.00434656
2	0	0	1	0	0	0	526.681	-0.899966	-0.900248	-4.34175	-0.0188893	-0.0188893	11	-0.00524703	0	0.00524703	0.000000000000000E+000	0.00524703	0.0000000E+000	0.000000000000000E+000	0.00390866
2	0	0	1	0	0	0	530.881	-0.899966	-0.900153	-4.33032	-0.0371102	-0.0371102	11	-0.0103084	0	0.0103084	0.000000000000000E+000	0.0103084	0.0000000E+000	0.000000000000000E+000	0.00389795
2	0	0	1	0	0	0	535.081	-0.899966	-0.900267	-4.32553	-0.0552928	-0.0552928	11	-0.0153591	0	0.0153591	0.000000000000000E+000	0.0153591	0.0000000E+000	0.000000000000000E+000	0.00389413
2	0	0	1	0	0	0	539.281	-0.899966	-0.900496	-4.01331	-0.0731448	-0.0731448	11	-0.020318	0	0.020318	0.000000000000000E+000	0.020318	0.0000000E+000	0.000000000000000E+000	0.00361397
2	0	0	1	0	0	0	543.481	-0.899966	-0.900248	-3.98492	-0.0899019	-0.0899019	11	-0.0249728	0	0.0249728	0.000000000000000E+000	0.0249728	0.0000000E+000	0.000000000000000E+000	0.00358742
2	0	0	1	0	0	0	547.681	-0.899966	-0.900343	-3.96311	-0.106589	-0.106589	11	-0.029608	0	0.029608	0.000000000000000E+000	0.029608	0.0000000E+000	0.000000000000000E+000	0.00356816
2	0	0	1	0	0	0	551.881	-0.899966	-0.900382	-3.94938	-0.123223	-0.123223	11	-0.0342286	0	0.0342286	0.000000000000000E+000	0.0342286	0.0000000E+000	0.000000000000000E+000	0.00355595
2	0	0	1	0	0	0	556.081	-0.899966	-0.900496	-3.95535	-0.13981	-0.13981	11	-0.038836	0	0.038836	0.000000000000000E+000	0.038836	0.0000000E+000	0.000000000000000E+000	0.00356178
2	0	0	1	0	0	0	560.281	-0.899966	-0.900401	-3.93716	-0.156353	-0.156353	11	-0.0434313	0	0.0434313	0.000000000000000E+000	0.0434313	0.0000000E+000	0.000000000000000E+000	0.00354502
2	0	0	1	0	0	0	564.481	-0.899966	-0.90042	-3.93051	-0.172878	-0.172878	11	-0.0480216	0	0.0480216	0.000000000000000E+000	0.0480216	0.0000000E+000	0.000000000000000E+000	0.00353911
2	0	0	1	0	0	0	568.681	-0.899966	-0.900362	-3.78978	-0.189347	-0.189347	11	-0.0525964	0	0.0525964	0.000000000000000E+000	0.0525964	0.0000000E+000	0.000000000000000E+000	0.00341217
2	0	0	1	0	0	0	572.881	-0.899966	-0.900382	-3.67101	-0.204913	-0.204913	11	-0.0569204	0	0.0569204	0.000000000000000E+000	0.0569204	0.0000000E+000	0.000000000000000E+000	0.00330531
2	0	0	1	0	0	0	577.081	-0.899966	-0.900382	-3.65109	-0.220273	-0.220273	11	-0.0611868	0	0.0611868	0.000000000000000E+000	0.0611868	0.0000000E+000	0.000000000000000E+000	0.00328737
2	0	0	1	0	0	0	581.281	-0.899966	-0.900286	-3.64547	-0.235584	-0.235584	11	-0.06544	0	0.06544	0.000000000000000E+000	0.06544	0.0000000E+000	0.000000000000000E+000	0.00328197
2	0	0	1	0	0	0	585.481	-0.899966	-0.900439	-3.63719	-0.250865	-0.250865	11	-0.0696847	0	0.0696847	0.000000000000000E+000	0.0696847	0.0000000E+000	0.000000000000000E+000	0.00327506
2	0	0	1	0	0	0	589.681	-0.899966	-0.900649	-3.32745	-0.265905	-0.265905	11	-0.0738626	0	0.0738626	0.000000000000000E+000	0.0738626	0.0000000E+000	0.000000000000000E+000	0.00299686
2	0	0	1	0	0	0	593.881	-0.899966	-0.900324	-3.1818	-0.279339	-0.279339	11	-0.0775941	0	0.0775941	0.000000000000000E+000	0.0775941	0.0000000E+000	0.000000000000000E+000	0.00286465
2	0	0	1	0	0	0	598.081	-0.899966	-0.900649	-3.13907	-0.292601	-0.292601	11	-0.0812781	0	0.0812781	0.000000000000000E+000	0.0812781	0.0000000E+000	0.000000000000000E+000	0.0028272
2	0	0	1	0	0	0	602.281	-0.899966	-0.900248	-3.12543	-0.305823	-0.305823	11	-0.0849509	0	0.0849509	0.000000000000000E+000	0.0849509	0.0000000E+000	0.000000000000000E+000	0.00281366
2	0	0	1	0	0	0	606.481	-0.899966	-0.900496	-2.80834	-0.318193	-0.318193	11	-0.0883871	0	0.0883871	0.000000000000000E+000	0.0883871	0.0000000E+000	0.000000000000000E+000	0.0025289
2	0	0	1	0	0	0	610.681	-0.899966	-0.900458	-2.78167	-0.329984	-0.329984	11	-0.0916622	0	0.0916622	0.000000000000000E+000	0.0916622	0.0000000E+000	0.000000000000000E+000	0.00250478
2	0	0	1	0	0	0	614.881	-0.899966	-0.900573	-2.78034	-0.341646	-0.341646	11	-0.0949016	0	0.0949016	0.000000000000000E+000	0.0949016	0.0000000E+000	0.000000000000000E+000	0.00250389
2	0	0	1	0	0	0	619.081	-0.899966	-0.900267	-2.76625	-0.35327	-0.35327	11	-0.0981305	0	0.0981305	0.000000000000000E+000	0.0981305	0.0000000E+000	0.000000000000000E+000	0.00249036
2	0	0	1	0	0	0	623.281	-0.899966	-0.900382	-2.76587	-0.364891	-0.364891	11	-0.101359	0	0.101359	0.000000000000000E+000	0.101359	0.0000000E+000	0.000000000000000E+000	0.00249034
2	0	0	1	0	0	0	627.481	-0.899966	-0.900458	-2.51594	-0.37632	-0.37632	11	-0.104533	0	0.104533	0.000000000000000E+000	0.104533	0.0000000E+000	0.000000000000000E+000	0.0022655
2	0	0	1	0	0	0	631.681	-0.899966	-0.900324	-2.37034	-0.386414	-0.386414	11	-0.107337	0	0.107337	0.000000000000000E+000	0.107337	0.0000000E+000	0.000000000000000E+000	0.00213407
2	0	0	1	0	0	0	635.881	-0.899966	-0.900343	-2.33102	-0.396273	-0.396273	11	-0.110076	0	0.110076	0.000000000000000E+000	0.110076	0.0000000E+000	0.000000000000000E+000	0.00209872
2	0	0	1	0	0	0	640.081	-0.899966	-0.900343	-2.3119	-0.406068	-0.406068	11	-0.112797	0	0.112797	0.000000000000000E+000	0.112797	0.0000000E+000	0.000000000000000E+000	0.0020815
2	0	0	1	0	0	0	644.281	-0.899966	-0.900439	-2.13349	-0.415495	-0.415495	11	-0.115415	0	0.115415	0.000000000000000E+000	0.115415	0.0000000E+000	0.000000000000000E+000	0.00192108
[...]
2	0	0	1	0	0	0	682.081	-0.899966	-0.900362	-2.69266	-0.502315	-0.502315	11	-0.139532	0	0.139532	0.000000000000000E+000	0.139532	0.0000000E+000	0.000000000000000E+000	0.00242437
2	0	0	1	0	0	0	686.281	-0.899966	-0.900382	-2.71923	-0.51367	-0.51367	11	-0.142686	0	0.142686	0.000000000000000E+000	0.142686	0.0000000E+000	0.000000000000000E+000	0.00244834
2	0	0	1	0	0	0	690.481	-0.899966	-0.900324	-2.71804	-0.525076	-0.525076	11	-0.145854	0	0.145854	0.000000000000000E+000	0.145854	0.0000000E+000	0.000000000000000E+000	0.00244711
2	0	0	1	0	0	0	694.681	-0.899966	-0.900534	-2.9346	-0.536568	-0.536568	11	-0.149047	0	0.149047	0.000000000000000E+000	0.149047	0.0000000E+000	0.000000000000000E+000	0.00264271
2	0	0	1	0	0	0	698.881	-0.899966	-0.900477	-3.06634	-0.549357	-0.549357	11	-0.152599	0	0.152599	0.000000000000000E+000	0.152599	0.0000000E+000	0.000000000000000E+000	0.00276117
2	0	0	1	0	0	0	703.081	-0.899966	-0.900382	-3.06923	-0.562302	-0.562302	11	-0.156195	0	0.156195	0.000000000000000E+000	0.156195	0.0000000E+000	0.000000000000000E+000	0.00276348
2	0	0	1	0	0	0	707.281	-0.899966	-0.900362	-3.07587	-0.575224	-0.575224	11	-0.159784	0	0.159784	0.000000000000000E+000	0.159784	0.0000000E+000	0.000000000000000E+000	0.0027694
2	0	0	1	0	0	0	711.481	-0.899966	-0.900286	-3.63508	-0.589737	-0.589737	11	-0.163816	0	0.163816	0.000000000000000E+000	0.163816	0.0000000E+000	0.000000000000000E+000	0.00327261
2	0	0	1	0	0	0	715.681	-0.899966	-0.900267	-3.65169	-0.605073	-0.605073	11	-0.168076	0	0.168076	0.000000000000000E+000	0.168076	0.0000000E+000	0.000000000000000E+000	0.00328749
2	0	0	1	0	0	0	719.881	-0.899966	-0.900496	-3.61642	-0.620309	-0.620309	11	-0.172308	0	0.172308	0.000000000000000E+000	0.172308	0.0000000E+000	0.000000000000000E+000	0.00325657
2	0	0	1	0	0	0	724.081	-0.899966	-0.900477	-3.88129	-0.636025	-0.636025	11	-0.176674	0	0.176674	0.000000000000000E+000	0.176674	0.0000000E+000	0.000000000000000E+000	0.00349501
2	0	0	1	0	0	0	728.281	-0.899966	-0.900095	-3.88361	-0.652346	-0.652346	11	-0.181207	0	0.181207	0.000000000000000E+000	0.181207	0.0000000E+000	0.000000000000000E+000	0.00349562
2	0	0	1	0	0	0	732.481	-0.899966	-0.900439	-3.87274	-0.66864	-0.66864	11	-0.185733	0	0.185733	0.000000000000000E+000	0.185733	0.0000000E+000	0.000000000000000E+000	0.00348716
2	0	0	1	0	0	0	736.681	-0.899966	-0.900382	-3.87078	-0.684894	-0.684894	11	-0.190248	0	0.190248	0.000000000000000E+000	0.190248	0.0000000E+000	0.000000000000000E+000	0.00348518
2	0	0	1	0	0	0	740.881	-0.899966	-0.900286	-4.24132	-0.701825	-0.701825	11	-0.194951	0	0.194951	0.000000000000000E+000	0.194951	0.0000000E+000	0.000000000000000E+000	0.0038184
2	0	0	1	0	0	0	745.081	-0.899966	-0.900191	-4.22853	-0.719617	-0.719617	11	-0.199894	0	0.199894	0.000000000000000E+000	0.199894	0.0000000E+000	0.000000000000000E+000	0.00380648
2	0	0	1	0	0	0	749.281	-0.899966	-0.900553	-4.22308	-0.737384	-0.737384	11	-0.204829	0	0.204829	0.000000000000000E+000	0.204829	0.0000000E+000	0.000000000000000E+000	0.00380311
2	0	0	1	0	0	0	753.481	-0.899966	-0.900611	-4.24593	-0.755235	-0.755235	11	-0.209787	0	0.209787	0.000000000000000E+000	0.209787	0.0000000E+000	0.000000000000000E+000	0.00382393
2	0	0	1	0	0	0	757.681	-0.899966	-0.900534	-4.17735	-0.772857	-0.772857	11	-0.214683	0	0.214683	0.000000000000000E+000	0.214683	0.0000000E+000	0.000000000000000E+000	0.00376185
2	0	0	1	0	0	0	759.471	-0.899966	-0.900362	-4.16608	-0.78033	-0.78033	11	-0.216758	0	0.216758	0.000000000000000E+000	0.216758	0.0000000E+000	0.000000000000000E+000	0.00375098