Folder: Koutecky-Levich-for-ECH (part 10)

File: ZnPVAGAECH_08 03-23-22-ZnPVAGA ECH KL 100-1600 rpm at -0_8V vs RHE RDE1_02_CA_C05(1).mpt
EC-Lab ASCII FILE
Nb header lines : 69

Chronoamperometry / Chronocoulometry

Run on channel : 5 (SN 6729)
User :
CE vs. WE compliance from -10 V to 10 V
Electrode connection : standard
Potential control : Ewe
Ewe ctrl range : min = -2.50 V, max = 2.50 V
Safety Limits :
	Do not start on E overload
Acquisition started on : 03/23/2022 15:50:02.769
Technique started on : 03/23/2022 15:50:07.917
Loaded Setting File :  NONE
Saved on :
	File : 03-23-22-ZnPVAGA  ECH KL 100-1600 rpm at -0_8V vs RHE RDE1_02_CA_C05.mpr
	Directory : \\research-scb.egr.msu.edu\research-scb\Mindy\Koutecky Levich\Zn GA PVA 001\ECH\03-23-22\
	Host : 35.9.136.210
Device : VSP (SN 0012)
Address : 35.9.137.65
EC-Lab for windows v11.43 (software)
Internet server v11.40 (firmware)
Command interpretor v11.40 (firmware)
Electrode material : Au/Pd
Initial state :
Electrolyte : NaCl (0.2M)
Comments : Fe(CN)63-/Fe(CN)64- 5.10-3 M
Reference electrode : SCE Saturated Calomel Electrode (0.241 V)
Electrode surface area : 0.196 cm²
Characteristic mass : 0.001 g
Equivalent Weight : 0.000 g/eq.
Density : 0.000 g/cm3
Volume (V) : 0.001 cm³
Cycle Definition : Charge/Discharge alternance
Ei (V)              -0.800
vs.                 Ref
ti (h:m:s)          0:30:0.0000
Imax                pass
unit Imax           mA
Imin                pass
unit Imin           mA
dQM                 0.000
unit dQM            mA.h
record              <I>
dI                  5.000
unit dI             µA
dQ                  0.000
unit dQ             mA.h
dt (s)              0.1000
dta (s)             0.1000
E range min (V)     -2.500
E range max (V)     2.500
I Range             Auto
I Range min         Unset
I Range max         Unset
I Range init        Unset
Bandwidth           5
goto Ns'            0
nc cycles           0

Modify on : 03/23/2022 15:52
Ei (V)              -0.600

Modify on : 03/23/2022 15:52
Ei (V)              -0.700

mode	ox/red	error	control changes	Ns changes	counter inc.	Ns	time/s	control/V	Ewe/V	<I>/mA	dQ/C	(Q-Qo)/C	I Range	Q charge/discharge/mA.h	half cycle	Q discharge/mA.h	Q charge/mA.h	Capacity/mA.h	Efficiency/%	cycle number	P/W
2	0	0	0	0	0	0	5.1484	-0.800021	-0.800248	-5.03053	-0.00012446	-0.00012446	11	-3.45721e-05	0	3.45721e-05	0.000000000000000E+000	3.45721e-05	0.0000000E+000	0.000000000000000E+000	0.00402567
2	0	0	0	0	0	0	12.9484	-0.800021	-0.800038	-4.06133	-0.0331407	-0.0331407	11	-0.00920576	0	0.00920576	0.000000000000000E+000	0.00920576	0.0000000E+000	0.000000000000000E+000	0.00324922
2	0	0	0	0	0	0	20.7484	-0.800021	-0.800248	-4.0746	-0.0648723	-0.0648723	11	-0.0180201	0	0.0180201	0.000000000000000E+000	0.0180201	0.0000000E+000	0.000000000000000E+000	0.00326069
2	0	0	0	0	0	0	28.5484	-0.800021	-0.800286	-4.0929	-0.0967327	-0.0967327	11	-0.0268702	0	0.0268702	0.000000000000000E+000	0.0268702	0.0000000E+000	0.000000000000000E+000	0.00327549
2	0	0	0	0	0	0	36.3484	-0.800021	-0.80021	-4.09362	-0.128727	-0.128727	11	-0.0357575	0	0.0357575	0.000000000000000E+000	0.0357575	0.0000000E+000	0.000000000000000E+000	0.00327575
2	0	0	0	0	0	0	44.1484	-0.800021	-0.800324	-4.12636	-0.160807	-0.160807	11	-0.0446686	0	0.0446686	0.000000000000000E+000	0.0446686	0.0000000E+000	0.000000000000000E+000	0.00330242
2	0	0	0	0	0	0	51.9484	-0.800021	-0.800229	-4.13806	-0.193037	-0.193037	11	-0.0536213	0	0.0536213	0.000000000000000E+000	0.0536213	0.0000000E+000	0.000000000000000E+000	0.0033114
2	0	0	0	0	0	0	59.7484	-0.800021	-0.800515	-3.99743	-0.225022	-0.225022	11	-0.0625061	0	0.0625061	0.000000000000000E+000	0.0625061	0.0000000E+000	0.000000000000000E+000	0.0032
2	0	0	0	0	0	0	67.5484	-0.800021	-0.80042	-3.92805	-0.255988	-0.255988	11	-0.0711078	0	0.0711078	0.000000000000000E+000	0.0711078	0.0000000E+000	0.000000000000000E+000	0.00314409
2	0	0	0	0	0	0	75.3484	-0.800021	-0.800439	-3.69787	-0.28489	-0.28489	11	-0.0791361	0	0.0791361	0.000000000000000E+000	0.0791361	0.0000000E+000	0.000000000000000E+000	0.00295992
2	0	0	0	0	0	0	83.1484	-0.800021	-0.800286	-3.74583	-0.313869	-0.313869	11	-0.0871859	0	0.0871859	0.000000000000000E+000	0.0871859	0.0000000E+000	0.000000000000000E+000	0.00299774
2	0	0	0	0	0	0	90.9484	-0.800021	-0.800477	-3.9644	-0.343321	-0.343321	11	-0.095367	0	0.095367	0.000000000000000E+000	0.095367	0.0000000E+000	0.000000000000000E+000	0.00317341
2	0	0	0	0	0	0	98.7484	-0.800021	-0.800515	-4.03626	-0.374827	-0.374827	11	-0.104119	0	0.104119	0.000000000000000E+000	0.104119	0.0000000E+000	0.000000000000000E+000	0.00323109
2	0	0	1	0	0	0	130.424	-0.800021	-0.800491	-4.03177	-0.404263	-0.404263	11	-0.112295	0	0.112295	0.000000000000000E+000	0.112295	0.0000000E+000	0.000000000000000E+000	0.0032274
2	0	0	1	0	0	0	138.224	-0.800021	-0.800606	-4.02258	-0.435618	-0.435618	11	-0.121005	0	0.121005	0.000000000000000E+000	0.121005	0.0000000E+000	0.000000000000000E+000	0.0032205
2	0	0	0	0	0	0	146.024	-0.600032	-0.600682	-0.794918	-0.444456	-0.444456	11	-0.12346	0	0.12346	0.000000000000000E+000	0.12346	0.0000000E+000	0.000000000000000E+000	0.000477493
2	0	0	0	0	0	0	153.824	-0.600032	-0.600548	-0.789466	-0.450635	-0.450635	11	-0.125176	0	0.125176	0.000000000000000E+000	0.125176	0.0000000E+000	0.000000000000000E+000	0.000474113
2	0	0	1	0	0	0	161.624	-0.699977	-0.700453	-2.09816	-0.461562	-0.461562	11	-0.128212	0	0.128212	0.000000000000000E+000	0.128212	0.0000000E+000	0.000000000000000E+000	0.00146966
2	0	0	1	0	0	0	169.424	-0.699977	-0.700453	-2.08518	-0.477878	-0.477878	11	-0.132744	0	0.132744	0.000000000000000E+000	0.132744	0.0000000E+000	0.000000000000000E+000	0.00146057
2	0	0	1	0	0	0	177.224	-0.699977	-0.700377	-2.0188	-0.493951	-0.493951	11	-0.137209	0	0.137209	0.000000000000000E+000	0.137209	0.0000000E+000	0.000000000000000E+000	0.00141392
2	0	0	1	0	0	0	185.024	-0.699977	-0.700453	-1.96273	-0.509605	-0.509605	11	-0.141557	0	0.141557	0.000000000000000E+000	0.141557	0.0000000E+000	0.000000000000000E+000	0.0013748
2	0	0	1	0	0	0	192.824	-0.699977	-0.700529	-1.94989	-0.524866	-0.524866	11	-0.145796	0	0.145796	0.000000000000000E+000	0.145796	0.0000000E+000	0.000000000000000E+000	0.00136595
2	0	0	1	0	0	0	200.624	-0.699977	-0.700548	-1.83372	-0.539535	-0.539535	11	-0.149871	0	0.149871	0.000000000000000E+000	0.149871	0.0000000E+000	0.000000000000000E+000	0.00128461
2	0	0	1	0	0	0	208.424	-0.699977	-0.70072	-1.80911	-0.553788	-0.553788	11	-0.15383	0	0.15383	0.000000000000000E+000	0.15383	0.0000000E+000	0.000000000000000E+000	0.00126768
2	0	0	1	0	0	0	216.224	-0.699977	-0.700567	-1.78446	-0.567853	-0.567853	11	-0.157737	0	0.157737	0.000000000000000E+000	0.157737	0.0000000E+000	0.000000000000000E+000	0.00125013
2	0	0	1	0	0	0	224.024	-0.699977	-0.700434	-1.76647	-0.581745	-0.581745	11	-0.161596	0	0.161596	0.000000000000000E+000	0.161596	0.0000000E+000	0.000000000000000E+000	0.0012373
2	0	0	1	0	0	0	231.824	-0.699977	-0.70051	-1.74574	-0.595484	-0.595484	11	-0.165412	0	0.165412	0.000000000000000E+000	0.165412	0.0000000E+000	0.000000000000000E+000	0.00122291
2	0	0	1	0	0	0	239.624	-0.699977	-0.700453	-1.68126	-0.609017	-0.609017	11	-0.169171	0	0.169171	0.000000000000000E+000	0.169171	0.0000000E+000	0.000000000000000E+000	0.00117765
2	0	0	1	0	0	0	247.424	-0.699977	-0.700415	-1.64386	-0.621932	-0.621932	11	-0.172759	0	0.172759	0.000000000000000E+000	0.172759	0.0000000E+000	0.000000000000000E+000	0.00115138
[...]
2	0	0	1	0	0	0	325.424	-0.699977	-0.700548	-1.48408	-0.740397	-0.740397	11	-0.205666	0	0.205666	0.000000000000000E+000	0.205666	0.0000000E+000	0.000000000000000E+000	0.00103967
2	0	0	1	0	0	0	333.224	-0.699977	-0.700682	-1.56281	-0.752063	-0.752063	11	-0.208906	0	0.208906	0.000000000000000E+000	0.208906	0.0000000E+000	0.000000000000000E+000	0.00109503
2	0	0	1	0	0	0	341.024	-0.699977	-0.700587	-1.5596	-0.764266	-0.764266	11	-0.212296	0	0.212296	0.000000000000000E+000	0.212296	0.0000000E+000	0.000000000000000E+000	0.00109263
2	0	0	1	0	0	0	348.824	-0.699977	-0.700567	-1.62671	-0.77671	-0.77671	11	-0.215753	0	0.215753	0.000000000000000E+000	0.215753	0.0000000E+000	0.000000000000000E+000	0.00113962
2	0	0	1	0	0	0	356.624	-0.699977	-0.700434	-1.62404	-0.789373	-0.789373	11	-0.21927	0	0.21927	0.000000000000000E+000	0.21927	0.0000000E+000	0.000000000000000E+000	0.00113754
2	0	0	1	0	0	0	364.424	-0.699977	-0.700587	-1.70692	-0.8023	-0.8023	11	-0.222861	0	0.222861	0.000000000000000E+000	0.222861	0.0000000E+000	0.000000000000000E+000	0.00119585
2	0	0	1	0	0	0	372.224	-0.699977	-0.700357	-1.70507	-0.815603	-0.815603	11	-0.226556	0	0.226556	0.000000000000000E+000	0.226556	0.0000000E+000	0.000000000000000E+000	0.00119416
2	0	0	1	0	0	0	380.024	-0.699977	-0.70051	-1.70395	-0.828906	-0.828906	11	-0.230252	0	0.230252	0.000000000000000E+000	0.230252	0.0000000E+000	0.000000000000000E+000	0.00119363
2	0	0	1	0	0	0	387.824	-0.699977	-0.700567	-1.74035	-0.842418	-0.842418	11	-0.234005	0	0.234005	0.000000000000000E+000	0.234005	0.0000000E+000	0.000000000000000E+000	0.00121924
2	0	0	1	0	0	0	395.624	-0.699977	-0.700529	-1.73971	-0.85599	-0.85599	11	-0.237775	0	0.237775	0.000000000000000E+000	0.237775	0.0000000E+000	0.000000000000000E+000	0.00121872
2	0	0	1	0	0	0	403.424	-0.699977	-0.700491	-1.73682	-0.869538	-0.869538	11	-0.241538	0	0.241538	0.000000000000000E+000	0.241538	0.0000000E+000	0.000000000000000E+000	0.00121663
2	0	0	1	0	0	0	411.224	-0.699977	-0.700529	-1.78287	-0.883382	-0.883382	11	-0.245384	0	0.245384	0.000000000000000E+000	0.245384	0.0000000E+000	0.000000000000000E+000	0.00124895
2	0	0	1	0	0	0	419.024	-0.699977	-0.700529	-1.77948	-0.897273	-0.897273	11	-0.249243	0	0.249243	0.000000000000000E+000	0.249243	0.0000000E+000	0.000000000000000E+000	0.00124658
2	0	0	1	0	0	0	426.824	-0.699977	-0.700453	-1.77618	-0.91115	-0.91115	11	-0.253097	0	0.253097	0.000000000000000E+000	0.253097	0.0000000E+000	0.000000000000000E+000	0.00124413
2	0	0	1	0	0	0	434.624	-0.699977	-0.700644	-1.76768	-0.92497	-0.92497	11	-0.256936	0	0.256936	0.000000000000000E+000	0.256936	0.0000000E+000	0.000000000000000E+000	0.00123852
2	0	0	1	0	0	0	442.424	-0.699977	-0.700453	-1.76463	-0.938752	-0.938752	11	-0.260764	0	0.260764	0.000000000000000E+000	0.260764	0.0000000E+000	0.000000000000000E+000	0.00123604
2	0	0	1	0	0	0	450.224	-0.699977	-0.700453	-1.76137	-0.952503	-0.952503	11	-0.264584	0	0.264584	0.000000000000000E+000	0.264584	0.0000000E+000	0.000000000000000E+000	0.00123376
2	0	0	1	0	0	0	458.024	-0.699977	-0.700644	-1.75995	-0.966234	-0.966234	11	-0.268398	0	0.268398	0.000000000000000E+000	0.268398	0.0000000E+000	0.000000000000000E+000	0.0012331
2	0	0	1	0	0	0	465.824	-0.699977	-0.700529	-1.74861	-0.979915	-0.979915	11	-0.272199	0	0.272199	0.000000000000000E+000	0.272199	0.0000000E+000	0.000000000000000E+000	0.00122495
2	0	0	1	0	0	0	468.636	-0.699977	-0.700491	-1.75176	-0.984828	-0.984828	11	-0.273563	0	0.273563	0.000000000000000E+000	0.273563	0.0000000E+000	0.000000000000000E+000	0.0012271

File: ZnPVAGAECH_08 03-23-22-ZnPVAGA ECH KL 100-1600 rpm at -0_8V vs RHE RDE2_03_CA_C05(1).mpt
EC-Lab ASCII FILE
Nb header lines : 66

Chronoamperometry / Chronocoulometry

Run on channel : 5 (SN 6729)
User :
CE vs. WE compliance from -10 V to 10 V
Electrode connection : standard
Potential control : Ewe
Ewe ctrl range : min = -2.50 V, max = 2.50 V
Safety Limits :
	Do not start on E overload
Acquisition started on : 03/23/2022 16:11:12.156
Technique started on : 03/23/2022 16:14:33.485
Loaded Setting File :  NONE
Saved on :
	File : 03-23-22-ZnPVAGA  ECH KL 100-1600 rpm at -0_8V vs RHE RDE2_03_CA_C05.mpr
	Directory : \\research-scb.egr.msu.edu\research-scb\Mindy\Koutecky Levich\Zn GA PVA 001\ECH\03-23-22\
	Host : 35.9.136.210
Device : VSP (SN 0012)
Address : 35.9.137.65
EC-Lab for windows v11.43 (software)
Internet server v11.40 (firmware)
Command interpretor v11.40 (firmware)
Electrode material : Au/Pd
Initial state :
Electrolyte : NaCl (0.2M)
Comments : Fe(CN)63-/Fe(CN)64- 5.10-3 M
Reference electrode : SCE Saturated Calomel Electrode (0.241 V)
Electrode surface area : 0.196 cm²
Characteristic mass : 0.001 g
Equivalent Weight : 0.000 g/eq.
Density : 0.000 g/cm3
Volume (V) : 0.001 cm³
Cycle Definition : Charge/Discharge alternance
Ei (V)              -0.700
vs.                 Ref
ti (h:m:s)          0:30:0.0000
Imax                pass
unit Imax           mA
Imin                pass
unit Imin           mA
dQM                 0.000
unit dQM            mA.h
record              <I>
dI                  5.000
unit dI             µA
dQ                  0.000
unit dQ             mA.h
dt (s)              0.1000
dta (s)             0.1000
E range min (V)     -2.500
E range max (V)     2.500
I Range             Auto
I Range min         Unset
I Range max         Unset
I Range init        Unset
Bandwidth           5
goto Ns'            0
nc cycles           0

Modify on : 03/23/2022 16:14
Ei (V)              -0.900

mode	ox/red	error	control changes	Ns changes	counter inc.	Ns	time/s	control/V	Ewe/V	<I>/mA	dQ/C	(Q-Qo)/C	I Range	Q charge/discharge/mA.h	half cycle	Q discharge/mA.h	Q charge/mA.h	Capacity/mA.h	Efficiency/%	cycle number	P/W
2	0	0	0	0	0	0	201.329	-0.899966	-0.900286	-2.06349	-9.30527e-05	-9.30527e-05	11	-2.5848e-05	0	2.5848e-05	0.000000000000000E+000	2.5848e-05	0.0000000E+000	0.000000000000000E+000	0.00185773
2	0	0	0	0	0	0	206.129	-0.899966	-0.900382	-1.71722	-0.00842358	-0.00842358	11	-0.00233988	0	0.00233988	0.000000000000000E+000	0.00233988	0.0000000E+000	0.000000000000000E+000	0.00154616
2	0	0	0	0	0	0	210.929	-0.899966	-0.900324	-1.71515	-0.0166629	-0.0166629	11	-0.00462857	0	0.00462857	0.000000000000000E+000	0.00462857	0.0000000E+000	0.000000000000000E+000	0.00154419
2	0	0	0	0	0	0	215.729	-0.899966	-0.900343	-1.71703	-0.0248974	-0.0248974	11	-0.00691595	0	0.00691595	0.000000000000000E+000	0.00691595	0.0000000E+000	0.000000000000000E+000	0.00154592
2	0	0	0	0	0	0	220.529	-0.899966	-0.900343	-1.64555	-0.0329249	-0.0329249	11	-0.0091458	0	0.0091458	0.000000000000000E+000	0.0091458	0.0000000E+000	0.000000000000000E+000	0.00148156
2	0	0	0	0	0	0	225.329	-0.899966	-0.900458	-1.63772	-0.0407965	-0.0407965	11	-0.0113323	0	0.0113323	0.000000000000000E+000	0.0113323	0.0000000E+000	0.000000000000000E+000	0.0014747
2	0	0	0	0	0	0	230.129	-0.899966	-0.900401	-1.63752	-0.0486616	-0.0486616	11	-0.0135171	0	0.0135171	0.000000000000000E+000	0.0135171	0.0000000E+000	0.000000000000000E+000	0.00147442
2	0	0	0	0	0	0	234.929	-0.899966	-0.900382	-1.63427	-0.0565139	-0.0565139	11	-0.0156983	0	0.0156983	0.000000000000000E+000	0.0156983	0.0000000E+000	0.000000000000000E+000	0.00147147
2	0	0	0	0	0	0	239.729	-0.899966	-0.900324	-1.63281	-0.0643505	-0.0643505	11	-0.0178751	0	0.0178751	0.000000000000000E+000	0.0178751	0.0000000E+000	0.000000000000000E+000	0.00147006
2	0	0	0	0	0	0	244.529	-0.899966	-0.900343	-1.59515	-0.072147	-0.072147	11	-0.0200408	0	0.0200408	0.000000000000000E+000	0.0200408	0.0000000E+000	0.000000000000000E+000	0.00143618
2	0	0	0	0	0	0	249.329	-0.899966	-0.900324	-1.57939	-0.0797492	-0.0797492	11	-0.0221526	0	0.0221526	0.000000000000000E+000	0.0221526	0.0000000E+000	0.000000000000000E+000	0.00142196
2	0	0	0	0	0	0	254.129	-0.899966	-0.900305	-1.57863	-0.0873184	-0.0873184	11	-0.0242551	0	0.0242551	0.000000000000000E+000	0.0242551	0.0000000E+000	0.000000000000000E+000	0.00142125
2	0	0	0	0	0	0	258.929	-0.899966	-0.900324	-1.57418	-0.0948835	-0.0948835	11	-0.0263565	0	0.0263565	0.000000000000000E+000	0.0263565	0.0000000E+000	0.000000000000000E+000	0.00141728
2	0	0	0	0	0	0	263.729	-0.899966	-0.900305	-1.55629	-0.102436	-0.102436	11	-0.0284546	0	0.0284546	0.000000000000000E+000	0.0284546	0.0000000E+000	0.000000000000000E+000	0.00140114
2	0	0	0	0	0	0	268.529	-0.899966	-0.900362	-1.47417	-0.109618	-0.109618	11	-0.0304494	0	0.0304494	0.000000000000000E+000	0.0304494	0.0000000E+000	0.000000000000000E+000	0.00132729
2	0	0	0	0	0	0	273.329	-0.899966	-0.900324	-1.46947	-0.116676	-0.116676	11	-0.0324099	0	0.0324099	0.000000000000000E+000	0.0324099	0.0000000E+000	0.000000000000000E+000	0.001323
2	0	0	0	0	0	0	278.129	-0.899966	-0.900362	-1.46394	-0.123718	-0.123718	11	-0.034366	0	0.034366	0.000000000000000E+000	0.034366	0.0000000E+000	0.000000000000000E+000	0.00131807
2	0	0	0	0	0	0	282.929	-0.899966	-0.90042	-1.41399	-0.130679	-0.130679	11	-0.0362996	0	0.0362996	0.000000000000000E+000	0.0362996	0.0000000E+000	0.000000000000000E+000	0.00127318
2	0	0	0	0	0	0	287.729	-0.899966	-0.90042	-1.37922	-0.137358	-0.137358	11	-0.0381551	0	0.0381551	0.000000000000000E+000	0.0381551	0.0000000E+000	0.000000000000000E+000	0.00124188
2	0	0	0	0	0	0	292.529	-0.899966	-0.900401	-1.38075	-0.143974	-0.143974	11	-0.0399929	0	0.0399929	0.000000000000000E+000	0.0399929	0.0000000E+000	0.000000000000000E+000	0.00124323
2	0	0	0	0	0	0	297.329	-0.899966	-0.900343	-1.37892	-0.150598	-0.150598	11	-0.0418327	0	0.0418327	0.000000000000000E+000	0.0418327	0.0000000E+000	0.000000000000000E+000	0.00124151
2	0	0	0	0	0	0	302.129	-0.899966	-0.900343	-1.36244	-0.157206	-0.157206	11	-0.0436682	0	0.0436682	0.000000000000000E+000	0.0436682	0.0000000E+000	0.000000000000000E+000	0.00122667
2	0	0	0	0	0	0	306.929	-0.899966	-0.900439	-1.29311	-0.163509	-0.163509	11	-0.0454192	0	0.0454192	0.000000000000000E+000	0.0454192	0.0000000E+000	0.000000000000000E+000	0.00116437
2	0	0	0	0	0	0	311.729	-0.899966	-0.90042	-1.28172	-0.169673	-0.169673	11	-0.0471314	0	0.0471314	0.000000000000000E+000	0.0471314	0.0000000E+000	0.000000000000000E+000	0.00115409
2	0	0	0	0	0	0	316.529	-0.899966	-0.90042	-1.27423	-0.175805	-0.175805	11	-0.0488347	0	0.0488347	0.000000000000000E+000	0.0488347	0.0000000E+000	0.000000000000000E+000	0.00114735
2	0	0	0	0	0	0	321.329	-0.899966	-0.900343	-1.27363	-0.18192	-0.18192	11	-0.0505333	0	0.0505333	0.000000000000000E+000	0.0505333	0.0000000E+000	0.000000000000000E+000	0.0011467
2	0	0	0	0	0	0	326.129	-0.899966	-0.900362	-1.26697	-0.188038	-0.188038	11	-0.0522327	0	0.0522327	0.000000000000000E+000	0.0522327	0.0000000E+000	0.000000000000000E+000	0.00114074
2	0	0	0	0	0	0	330.929	-0.899966	-0.900362	-1.21541	-0.193971	-0.193971	11	-0.0538808	0	0.0538808	0.000000000000000E+000	0.0538808	0.0000000E+000	0.000000000000000E+000	0.00109431
2	0	0	0	0	0	0	335.729	-0.899966	-0.900343	-1.20026	-0.199762	-0.199762	11	-0.0554895	0	0.0554895	0.000000000000000E+000	0.0554895	0.0000000E+000	0.000000000000000E+000	0.00108064
[...]
2	0	0	0	0	0	0	378.929	-0.899966	-0.900362	-1.35204	-0.253794	-0.253794	11	-0.0704982	0	0.0704982	0.000000000000000E+000	0.0704982	0.0000000E+000	0.000000000000000E+000	0.00121733
2	0	0	0	0	0	0	383.729	-0.899966	-0.900343	-1.34901	-0.260275	-0.260275	11	-0.0722986	0	0.0722986	0.000000000000000E+000	0.0722986	0.0000000E+000	0.000000000000000E+000	0.00121457
2	0	0	0	0	0	0	388.529	-0.899966	-0.900229	-1.35072	-0.266758	-0.266758	11	-0.0740995	0	0.0740995	0.000000000000000E+000	0.0740995	0.0000000E+000	0.000000000000000E+000	0.00121596
2	0	0	0	0	0	0	393.329	-0.899966	-0.900382	-1.354	-0.27324	-0.27324	11	-0.0759	0	0.0759	0.000000000000000E+000	0.0759	0.0000000E+000	0.000000000000000E+000	0.00121911
2	0	0	0	0	0	0	398.129	-0.899966	-0.900401	-1.4138	-0.279949	-0.279949	11	-0.0777637	0	0.0777637	0.000000000000000E+000	0.0777637	0.0000000E+000	0.000000000000000E+000	0.00127298
2	0	0	0	0	0	0	402.929	-0.899966	-0.900401	-1.4166	-0.286743	-0.286743	11	-0.0796509	0	0.0796509	0.000000000000000E+000	0.0796509	0.0000000E+000	0.000000000000000E+000	0.00127551
2	0	0	0	0	0	0	407.729	-0.899966	-0.900343	-1.41421	-0.293538	-0.293538	11	-0.0815384	0	0.0815384	0.000000000000000E+000	0.0815384	0.0000000E+000	0.000000000000000E+000	0.00127328
2	0	0	0	0	0	0	412.529	-0.899966	-0.900324	-1.49078	-0.300451	-0.300451	11	-0.0834587	0	0.0834587	0.000000000000000E+000	0.0834587	0.0000000E+000	0.000000000000000E+000	0.00134219
2	0	0	0	0	0	0	417.329	-0.899966	-0.900191	-1.50782	-0.307663	-0.307663	11	-0.0854618	0	0.0854618	0.000000000000000E+000	0.0854618	0.0000000E+000	0.000000000000000E+000	0.00135732
2	0	0	0	0	0	0	422.129	-0.899966	-0.900248	-1.50822	-0.314893	-0.314893	11	-0.0874703	0	0.0874703	0.000000000000000E+000	0.0874703	0.0000000E+000	0.000000000000000E+000	0.00135777
2	0	0	0	0	0	0	426.929	-0.899966	-0.900401	-1.51115	-0.322142	-0.322142	11	-0.0894838	0	0.0894838	0.000000000000000E+000	0.0894838	0.0000000E+000	0.000000000000000E+000	0.00136064
2	0	0	0	0	0	0	431.729	-0.899966	-0.900382	-1.54967	-0.329536	-0.329536	11	-0.0915378	0	0.0915378	0.000000000000000E+000	0.0915378	0.0000000E+000	0.000000000000000E+000	0.00139529
2	0	0	0	0	0	0	436.529	-0.899966	-0.900401	-1.55462	-0.336985	-0.336985	11	-0.093607	0	0.093607	0.000000000000000E+000	0.093607	0.0000000E+000	0.000000000000000E+000	0.00139978
2	0	0	0	0	0	0	441.329	-0.899966	-0.900362	-1.55176	-0.344444	-0.344444	11	-0.0956789	0	0.0956789	0.000000000000000E+000	0.0956789	0.0000000E+000	0.000000000000000E+000	0.00139715
2	0	0	0	0	0	0	446.129	-0.899966	-0.900477	-1.56407	-0.351897	-0.351897	11	-0.0977491	0	0.0977491	0.000000000000000E+000	0.0977491	0.0000000E+000	0.000000000000000E+000	0.00140841
2	0	0	0	0	0	0	450.929	-0.899966	-0.900343	-1.61781	-0.359625	-0.359625	11	-0.0998958	0	0.0998958	0.000000000000000E+000	0.0998958	0.0000000E+000	0.000000000000000E+000	0.00145659
2	0	0	0	0	0	0	455.729	-0.899966	-0.900439	-1.61973	-0.367401	-0.367401	11	-0.102056	0	0.102056	0.000000000000000E+000	0.102056	0.0000000E+000	0.000000000000000E+000	0.00145847
2	0	0	0	0	0	0	460.529	-0.899966	-0.900343	-1.61937	-0.375179	-0.375179	11	-0.104216	0	0.104216	0.000000000000000E+000	0.104216	0.0000000E+000	0.000000000000000E+000	0.00145799
2	0	0	0	0	0	0	465.329	-0.899966	-0.900324	-1.61631	-0.382957	-0.382957	11	-0.106377	0	0.106377	0.000000000000000E+000	0.106377	0.0000000E+000	0.000000000000000E+000	0.0014552
2	0	0	0	0	0	0	467.833	-0.899966	-0.900458	-1.62415	-0.387018	-0.387018	11	-0.107505	0	0.107505	0.000000000000000E+000	0.107505	0.0000000E+000	0.000000000000000E+000	0.00146248