Folder: Koutecky-Levich-for-ECH (part 5)

File: ZnPVAECH_08 RDE 3 ECH 1600 rpm K-L.mpt
EC-Lab ASCII FILE
Nb header lines : 81

Chronoamperometry / Chronocoulometry

Run on channel : 5 (SN 6729)
User :
CE vs. WE compliance from -10 V to 10 V
Electrode connection : standard
Ewe ctrl range : min = -2.50 V, max = 2.50 V
Safety Limits :
	Do not start on E overload
Acquisition started on : 03/10/2022 15:06:41.638
Technique started on : 03/10/2022 15:06:41.738
Loaded Setting File :  NONE
Saved on :
	File : 03-10-22-GC ECH K-L 100 to 1600 rpm at -0_8V vs RHE RDE3_C05.mpr
	Directory : G:\Mindy\Koutecky Levich\Zn PVA\ECH\03-10-22\
	Host : 35.9.136.176
Device : VSP (SN 0012)
Address : 35.9.137.65
EC-Lab for windows v11.36 (software)
Internet server v11.36 (firmware)
Command interpretor v11.36 (firmware)
Electrode material : Au/Pd
Initial state :
Electrolyte : NaCl (0.2M)
Comments : Fe(CN)63-/Fe(CN)64- 5.10-3 M
Reference electrode : SCE Saturated Calomel Electrode (0.241 V)
Electrode surface area : 0.196 cm²
Characteristic mass : 0.001 g
Equivalent Weight : 0.000 g/eq.
Density : 0.000 g/cm3
Record Analogic IN 1
Cycle Definition : Charge/Discharge alternance
External device configuration :
   device type : RDE
   device name : BluRev RDE
   Analog OUT :
      mode : E/V
      unit : speed/rpm
      max : 10000.000 at 10.000 V
      min : 0.000 at 0.000 V
      current : 1600.000
   Analog IN 1 :
      unit : speed/rpm
      max : 10000.000 at 10.000 V
      min : 0.000 at 0.000 V
Ei (V)              -0.780
vs.                 Ref
ti (h:m:s)          0:30:0.0000
Imax                pass
unit Imax           mA
Imin                pass
unit Imin           mA
dQM                 0.000
unit dQM            mA.h
record              <I>
dI                  5.000
unit dI             µA
dQ                  0.000
unit dQ             mA.h
dt (s)              0.1000
dta (s)             0.1000
E range min (V)     -2.500
E range max (V)     2.500
I Range             Auto
I Range min         Unset
I Range max         Unset
I Range init        Unset
Bandwidth           5
goto Ns'            0
nc cycles           0

Modify on : 03/10/2022 15:06
Ei (V)              -0.760

Modify on : 03/10/2022 15:07
Ei (V)              -0.770

mode	ox/red	error	control changes	Ns changes	counter inc.	Ns	time/s	control/V	Ewe/V	<I>/mA	dQ/C	(Q-Qo)/C	I Range	Q charge/discharge/mA.h	half cycle	Analog IN 1/V	Analog OUT/V	Q discharge/mA.h	Q charge/mA.h	Capacity/mA.h	Efficiency/%	cycle number	P/W
2	0	0	0	0	0	0	0.1	-0.780006	-0.780546	-4.08206	-0.000116722	-0.000116722	11	-3.24227e-05	0	-0.216629	1600	3.24227e-05	0.000000000000000E+000	3.24227e-05	0.0000000E+000	0.000000000000000E+000	0.00318623
2	0	0	0	0	0	0	3.9	-0.780006	-0.78047	-3.86329	-0.0148851	-0.0148851	11	-0.00413475	0	-0.254813	1600	0.00413475	0.000000000000000E+000	0.00413475	0.0000000E+000	0.000000000000000E+000	0.00301518
2	0	0	0	0	0	0	7.7	-0.780006	-0.780336	-3.83627	-0.029509	-0.029509	11	-0.00819695	0	-0.159353	1600	0.00819695	0.000000000000000E+000	0.00819695	0.0000000E+000	0.000000000000000E+000	0.00299358
2	0	0	0	0	0	0	11.5	-0.780006	-0.780336	-3.82287	-0.0440687	-0.0440687	11	-0.0122413	0	-0.121168	1600	0.0122413	0.000000000000000E+000	0.0122413	0.0000000E+000	0.000000000000000E+000	0.00298312
2	0	0	0	0	0	0	15.3	-0.780006	-0.780317	-3.80923	-0.0585652	-0.0585652	11	-0.0162681	0	-0.197537	1600	0.0162681	0.000000000000000E+000	0.0162681	0.0000000E+000	0.000000000000000E+000	0.00297241
2	0	0	1	0	0	0	19.1	-0.759997	-0.760348	-3.21858	-0.0711079	-0.0711079	11	-0.0197522	0	-0.292998	1600	0.0197522	0.000000000000000E+000	0.0197522	0.0000000E+000	0.000000000000000E+000	0.00244724
2	0	0	1	0	0	0	22.9	-0.759997	-0.760329	-3.20447	-0.0833092	-0.0833092	11	-0.0231414	0	-0.216629	1600	0.0231414	0.000000000000000E+000	0.0231414	0.0000000E+000	0.000000000000000E+000	0.00243645
2	0	0	0	0	0	0	26.7	-0.770002	-0.770447	-3.4694	-0.0956387	-0.0956387	11	-0.0265663	0	-0.159353	1600	0.0265663	0.000000000000000E+000	0.0265663	0.0000000E+000	0.000000000000000E+000	0.00267299
2	0	0	0	0	0	0	30.5	-0.770002	-0.770294	-3.45594	-0.1088	-0.1088	11	-0.0302221	0	-0.292998	1600	0.0302221	0.000000000000000E+000	0.0302221	0.0000000E+000	0.000000000000000E+000	0.00266209
2	0	0	0	0	0	0	34.3	-0.770002	-0.770409	-3.44547	-0.121909	-0.121909	11	-0.0338636	0	-0.216629	1600	0.0338636	0.000000000000000E+000	0.0338636	0.0000000E+000	0.000000000000000E+000	0.00265442
2	0	0	0	0	0	0	38.1	-0.770002	-0.770409	-3.43153	-0.134969	-0.134969	11	-0.0374915	0	-0.14026	1600	0.0374915	0.000000000000000E+000	0.0374915	0.0000000E+000	0.000000000000000E+000	0.00264368
2	0	0	0	0	0	0	41.9	-0.770002	-0.770466	-3.22918	-0.147751	-0.147751	11	-0.0410419	0	-0.254813	1600	0.0410419	0.000000000000000E+000	0.0410419	0.0000000E+000	0.000000000000000E+000	0.00248798
2	0	0	0	0	0	0	45.7	-0.770002	-0.770466	-3.23543	-0.160071	-0.160071	11	-0.0444642	0	-0.159353	1600	0.0444642	0.000000000000000E+000	0.0444642	0.0000000E+000	0.000000000000000E+000	0.00249279
2	0	0	0	0	0	0	49.5	-0.770002	-0.770314	-3.22486	-0.172357	-0.172357	11	-0.0478768	0	-0.31209	1600	0.0478768	0.000000000000000E+000	0.0478768	0.0000000E+000	0.000000000000000E+000	0.00248416
2	0	0	0	0	0	0	53.3	-0.770002	-0.770485	-3.22067	-0.184604	-0.184604	11	-0.0512789	0	-0.159353	1600	0.0512789	0.000000000000000E+000	0.0512789	0.0000000E+000	0.000000000000000E+000	0.00248148
2	0	0	0	0	0	0	57.1	-0.770002	-0.77039	-3.08011	-0.196472	-0.196472	11	-0.0545757	0	-0.178445	1600	0.0545757	0.000000000000000E+000	0.0545757	0.0000000E+000	0.000000000000000E+000	0.00237288
2	0	0	0	0	0	0	60.9	-0.770002	-0.770485	-3.06695	-0.208153	-0.208153	11	-0.0578202	0	-0.178445	1600	0.0578202	0.000000000000000E+000	0.0578202	0.0000000E+000	0.000000000000000E+000	0.00236304
2	0	0	0	0	0	0	64.7	-0.770002	-0.770314	-2.92243	-0.219719	-0.219719	11	-0.061033	0	-0.216629	1600	0.061033	0.000000000000000E+000	0.061033	0.0000000E+000	0.000000000000000E+000	0.00225119
2	0	0	0	0	0	0	68.5	-0.770002	-0.770371	-2.86001	-0.230646	-0.230646	11	-0.0640684	0	-0.178445	1600	0.0640684	0.000000000000000E+000	0.0640684	0.0000000E+000	0.000000000000000E+000	0.00220327
2	0	0	0	0	0	0	72.3	-0.770002	-0.770409	-2.85954	-0.241517	-0.241517	11	-0.067088	0	-0.197537	1600	0.067088	0.000000000000000E+000	0.067088	0.0000000E+000	0.000000000000000E+000	0.00220301
2	0	0	0	0	0	0	76.1	-0.770002	-0.770333	-2.85226	-0.252357	-0.252357	11	-0.0700993	0	-0.235721	1600	0.0700993	0.000000000000000E+000	0.0700993	0.0000000E+000	0.000000000000000E+000	0.00219719
2	0	0	0	0	0	0	79.9	-0.770002	-0.770275	-2.83642	-0.263166	-0.263166	11	-0.0731018	0	-0.197537	1600	0.0731018	0.000000000000000E+000	0.0731018	0.0000000E+000	0.000000000000000E+000	0.00218483
2	0	0	0	0	0	0	83.7	-0.770002	-0.770333	-2.74433	-0.273627	-0.273627	11	-0.0760074	0	-0.254813	1600	0.0760074	0.000000000000000E+000	0.0760074	0.0000000E+000	0.000000000000000E+000	0.00211405
2	0	0	0	0	0	0	87.5	-0.770002	-0.770466	-2.7437	-0.284048	-0.284048	11	-0.0789023	0	-0.159353	1600	0.0789023	0.000000000000000E+000	0.0789023	0.0000000E+000	0.000000000000000E+000	0.00211393
2	0	0	0	0	0	0	91.3	-0.770002	-0.770294	-2.73586	-0.294443	-0.294443	11	-0.0817896	0	-0.254813	1600	0.0817896	0.000000000000000E+000	0.0817896	0.0000000E+000	0.000000000000000E+000	0.00210742
[...]
2	0	0	0	0	0	0	129.3	-0.770002	-0.77039	-2.22193	-0.382699	-0.382699	11	-0.106305	0	-0.159353	1600	0.106305	0.000000000000000E+000	0.106305	0.0000000E+000	0.000000000000000E+000	0.00171175
2	0	0	0	0	0	0	133.1	-0.770002	-0.770352	-2.21607	-0.39112	-0.39112	11	-0.108644	0	-0.159353	1600	0.108644	0.000000000000000E+000	0.108644	0.0000000E+000	0.000000000000000E+000	0.00170715
2	0	0	0	0	0	0	136.9	-0.770002	-0.770409	-2.4618	-0.40034	-0.40034	11	-0.111205	0	-0.159353	1600	0.111205	0.000000000000000E+000	0.111205	0.0000000E+000	0.000000000000000E+000	0.00189659
2	0	0	0	0	0	0	140.7	-0.770002	-0.770543	-2.45638	-0.409701	-0.409701	11	-0.113806	0	-0.235721	1600	0.113806	0.000000000000000E+000	0.113806	0.0000000E+000	0.000000000000000E+000	0.00189275
2	0	0	0	0	0	0	144.5	-0.770002	-0.770294	-2.45715	-0.419053	-0.419053	11	-0.116404	0	-0.14026	1600	0.116404	0.000000000000000E+000	0.116404	0.0000000E+000	0.000000000000000E+000	0.00189273
2	0	0	0	0	0	0	148.3	-0.770002	-0.770333	-2.65536	-0.428937	-0.428937	11	-0.119149	0	-0.178445	1600	0.119149	0.000000000000000E+000	0.119149	0.0000000E+000	0.000000000000000E+000	0.00204551
2	0	0	0	0	0	0	152.1	-0.770002	-0.770333	-2.65346	-0.438994	-0.438994	11	-0.121943	0	-0.216629	1600	0.121943	0.000000000000000E+000	0.121943	0.0000000E+000	0.000000000000000E+000	0.00204405
2	0	0	0	0	0	0	155.9	-0.770002	-0.770409	-2.88701	-0.449194	-0.449194	11	-0.124776	0	-0.178445	1600	0.124776	0.000000000000000E+000	0.124776	0.0000000E+000	0.000000000000000E+000	0.00222418
2	0	0	0	0	0	0	159.7	-0.770002	-0.770409	-2.88691	-0.460172	-0.460172	11	-0.127825	0	-0.102076	1600	0.127825	0.000000000000000E+000	0.127825	0.0000000E+000	0.000000000000000E+000	0.0022241
2	0	0	0	0	0	0	163.5	-0.770002	-0.770524	-2.87663	-0.471121	-0.471121	11	-0.130867	0	-0.216629	1600	0.130867	0.000000000000000E+000	0.130867	0.0000000E+000	0.000000000000000E+000	0.00221651
2	0	0	0	0	0	0	167.3	-0.770002	-0.77039	-2.87489	-0.482044	-0.482044	11	-0.133901	0	-0.0829839	1600	0.133901	0.000000000000000E+000	0.133901	0.0000000E+000	0.000000000000000E+000	0.00221478
2	0	0	0	0	0	0	171.1	-0.770002	-0.770466	-2.98568	-0.493083	-0.493083	11	-0.136967	0	-0.31209	1600	0.136967	0.000000000000000E+000	0.136967	0.0000000E+000	0.000000000000000E+000	0.00230036
2	0	0	0	0	0	0	174.9	-0.770002	-0.770409	-2.98263	-0.504415	-0.504415	11	-0.140115	0	-0.254813	1600	0.140115	0.000000000000000E+000	0.140115	0.0000000E+000	0.000000000000000E+000	0.00229785
2	0	0	0	0	0	0	178.7	-0.770002	-0.770466	-2.97378	-0.51572	-0.51572	11	-0.143255	0	-0.159353	1600	0.143255	0.000000000000000E+000	0.143255	0.0000000E+000	0.000000000000000E+000	0.0022912
2	0	0	0	0	0	0	182.5	-0.770002	-0.770275	-3.14432	-0.52706	-0.52706	11	-0.146405	0	-0.102076	1600	0.146405	0.000000000000000E+000	0.146405	0.0000000E+000	0.000000000000000E+000	0.002422
2	0	0	0	0	0	0	186.3	-0.770002	-0.770275	-3.10411	-0.538889	-0.538889	11	-0.149691	0	-0.254813	1600	0.149691	0.000000000000000E+000	0.149691	0.0000000E+000	0.000000000000000E+000	0.00239102
2	0	0	0	0	0	0	190.1	-0.770002	-0.770314	-3.10106	-0.550674	-0.550674	11	-0.152965	0	-0.197537	1600	0.152965	0.000000000000000E+000	0.152965	0.0000000E+000	0.000000000000000E+000	0.00238879
2	0	0	0	0	0	0	193.9	-0.770002	-0.770333	-3.09268	-0.562443	-0.562443	11	-0.156234	0	-0.216629	1600	0.156234	0.000000000000000E+000	0.156234	0.0000000E+000	0.000000000000000E+000	0.00238239
2	0	0	0	0	0	0	195.572	-0.770002	-0.770447	-3.09288	-0.567615	-0.567615	11	-0.157671	0	-0.350274	1600	0.157671	0.000000000000000E+000	0.157671	INF	0.000000000000000E+000	0.0023829

File: ZnPVAECH_09 04-22-22-Zn -09 PVA ECH 1600 rpm K-L gc3_03_CA_C05(1).mpt
EC-Lab ASCII FILE
Nb header lines : 63

Chronoamperometry / Chronocoulometry

Run on channel : 5 (SN 6729)
User :
CE vs. WE compliance from -10 V to 10 V
Electrode connection : standard
Potential control : Ewe
Ewe ctrl range : min = -2.50 V, max = 2.50 V
Safety Limits :
	Do not start on E overload
Acquisition started on : 04/04/2022 13:47:44.060
Technique started on : 04/04/2022 13:52:25.734
Loaded Setting File :  NONE
Saved on :
	File : 04-22-22-Zn PVA ECH 1600 rpm K-L gc3_03_CA_C05.mpr
	Directory : \\research-scb.egr.msu.edu\research-scb\Mindy\Koutecky Levich\Zn PVA\ECH\04-04-22\
	Host : 35.9.136.210
Device : VSP (SN 0012)
Address : 35.9.137.65
EC-Lab for windows v11.43 (software)
Internet server v11.40 (firmware)
Command interpretor v11.40 (firmware)
Electrode material : Au/Pd
Initial state :
Electrolyte : NaCl (0.2M)
Comments : Fe(CN)63-/Fe(CN)64- 5.10-3 M
Reference electrode : SCE Saturated Calomel Electrode (0.241 V)
Electrode surface area : 0.196 cm²
Characteristic mass : 0.001 g
Equivalent Weight : 0.000 g/eq.
Density : 0.000 g/cm3
Volume (V) : 0.001 cm³
Cycle Definition : Charge/Discharge alternance
Ei (V)              -0.900
vs.                 Ref
ti (h:m:s)          0:10:0.0000
Imax                pass
unit Imax           mA
Imin                pass
unit Imin           mA
dQM                 0.000
unit dQM            mA.h
record              <I>
dI                  5.000
unit dI             µA
dQ                  0.000
unit dQ             mA.h
dt (s)              0.1000
dta (s)             0.1000
E range min (V)     -2.500
E range max (V)     2.500
I Range             Auto
I Range min         Unset
I Range max         Unset
I Range init        Unset
Bandwidth           5
goto Ns'            0
nc cycles           0

mode	ox/red	error	control changes	Ns changes	counter inc.	Ns	time/s	control/V	Ewe/V	<I>/mA	dQ/C	(Q-Qo)/C	I Range	Q charge/discharge/mA.h	half cycle	Q discharge/mA.h	Q charge/mA.h	Capacity/mA.h	Efficiency/%	cycle number	P/W
2	0	0	0	0	0	0	281.674	-0.899966	-0.900305	-3.81776	-0.00011528	-0.00011528	11	-3.20221e-05	0	3.20221e-05	0.000000000000000E+000	3.20221e-05	0.0000000E+000	0.000000000000000E+000	0.00343715
2	0	0	0	0	0	0	286.274	-0.899966	-0.900458	-3.7596	-0.0174609	-0.0174609	11	-0.00485024	0	0.00485024	0.000000000000000E+000	0.00485024	0.0000000E+000	0.000000000000000E+000	0.00338536
2	0	0	0	0	0	0	290.874	-0.899966	-0.900324	-3.75583	-0.0347487	-0.0347487	11	-0.00965242	0	0.00965242	0.000000000000000E+000	0.00965242	0.0000000E+000	0.000000000000000E+000	0.00338146
2	0	0	0	0	0	0	295.474	-0.899966	-0.900439	-3.8242	-0.052304	-0.052304	11	-0.0145289	0	0.0145289	0.000000000000000E+000	0.0145289	0.0000000E+000	0.000000000000000E+000	0.00344346
2	0	0	0	0	0	0	300.074	-0.899966	-0.900305	-3.80836	-0.0698613	-0.0698613	11	-0.0194059	0	0.0194059	0.000000000000000E+000	0.0194059	0.0000000E+000	0.000000000000000E+000	0.00342869
2	0	0	0	0	0	0	304.674	-0.899966	-0.900382	-3.73537	-0.087213	-0.087213	11	-0.0242258	0	0.0242258	0.000000000000000E+000	0.0242258	0.0000000E+000	0.000000000000000E+000	0.00336326
2	0	0	0	0	0	0	309.274	-0.899966	-0.90021	-3.72672	-0.104373	-0.104373	11	-0.0289925	0	0.0289925	0.000000000000000E+000	0.0289925	0.0000000E+000	0.000000000000000E+000	0.00335483
2	0	0	0	0	0	0	313.874	-0.899966	-0.900401	-3.59234	-0.121237	-0.121237	11	-0.0336771	0	0.0336771	0.000000000000000E+000	0.0336771	0.0000000E+000	0.000000000000000E+000	0.00323455
2	0	0	0	0	0	0	318.474	-0.899966	-0.90042	-3.59156	-0.137773	-0.137773	11	-0.0382703	0	0.0382703	0.000000000000000E+000	0.0382703	0.0000000E+000	0.000000000000000E+000	0.00323391
2	0	0	0	0	0	0	323.074	-0.899966	-0.900382	-3.48254	-0.154122	-0.154122	11	-0.0428116	0	0.0428116	0.000000000000000E+000	0.0428116	0.0000000E+000	0.000000000000000E+000	0.00313561
2	0	0	0	0	0	0	327.674	-0.899966	-0.900382	-3.47693	-0.170127	-0.170127	11	-0.0472575	0	0.0472575	0.000000000000000E+000	0.0472575	0.0000000E+000	0.000000000000000E+000	0.00313057
2	0	0	0	0	0	0	332.274	-0.899966	-0.900324	-3.23088	-0.185479	-0.185479	11	-0.0515219	0	0.0515219	0.000000000000000E+000	0.0515219	0.0000000E+000	0.000000000000000E+000	0.00290884
2	0	0	0	0	0	0	336.874	-0.899966	-0.900515	-3.21924	-0.200304	-0.200304	11	-0.0556399	0	0.0556399	0.000000000000000E+000	0.0556399	0.0000000E+000	0.000000000000000E+000	0.00289897
2	0	0	0	0	0	0	341.474	-0.899966	-0.900496	-3.02605	-0.214944	-0.214944	11	-0.0597067	0	0.0597067	0.000000000000000E+000	0.0597067	0.0000000E+000	0.000000000000000E+000	0.00272495
2	0	0	0	0	0	0	346.074	-0.899966	-0.900401	-3.00799	-0.228751	-0.228751	11	-0.0635419	0	0.0635419	0.000000000000000E+000	0.0635419	0.0000000E+000	0.000000000000000E+000	0.0027084
2	0	0	0	0	0	0	350.674	-0.899966	-0.900343	-2.78681	-0.242454	-0.242454	11	-0.0673484	0	0.0673484	0.000000000000000E+000	0.0673484	0.0000000E+000	0.000000000000000E+000	0.00250909
2	0	0	0	0	0	0	355.274	-0.899966	-0.90042	-2.68086	-0.254872	-0.254872	11	-0.0707978	0	0.0707978	0.000000000000000E+000	0.0707978	0.0000000E+000	0.000000000000000E+000	0.0024139
2	0	0	0	0	0	0	359.874	-0.899966	-0.900362	-2.67608	-0.267211	-0.267211	11	-0.0742252	0	0.0742252	0.000000000000000E+000	0.0742252	0.0000000E+000	0.000000000000000E+000	0.00240944
2	0	0	0	0	0	0	364.474	-0.899966	-0.900362	-2.67848	-0.279543	-0.279543	11	-0.0776509	0	0.0776509	0.000000000000000E+000	0.0776509	0.0000000E+000	0.000000000000000E+000	0.0024116
2	0	0	0	0	0	0	369.074	-0.899966	-0.900439	-2.65341	-0.291858	-0.291858	11	-0.0810716	0	0.0810716	0.000000000000000E+000	0.0810716	0.0000000E+000	0.000000000000000E+000	0.00238923
2	0	0	0	0	0	0	373.674	-0.899966	-0.900382	-2.40756	-0.303216	-0.303216	11	-0.0842266	0	0.0842266	0.000000000000000E+000	0.0842266	0.0000000E+000	0.000000000000000E+000	0.00216772
2	0	0	0	0	0	0	378.274	-0.899966	-0.90042	-2.41319	-0.314299	-0.314299	11	-0.0873053	0	0.0873053	0.000000000000000E+000	0.0873053	0.0000000E+000	0.000000000000000E+000	0.00217288
2	0	0	0	0	0	0	382.874	-0.899966	-0.900362	-2.4146	-0.325399	-0.325399	11	-0.0903885	0	0.0903885	0.000000000000000E+000	0.0903885	0.0000000E+000	0.000000000000000E+000	0.00217401
2	0	0	0	0	0	0	387.474	-0.899966	-0.900401	-1.84294	-0.335762	-0.335762	11	-0.0932672	0	0.0932672	0.000000000000000E+000	0.0932672	0.0000000E+000	0.000000000000000E+000	0.00165938
2	0	0	0	0	0	0	392.074	-0.899966	-0.900382	-2.10283	-0.344423	-0.344423	11	-0.0956731	0	0.0956731	0.000000000000000E+000	0.0956731	0.0000000E+000	0.000000000000000E+000	0.00189335
2	0	0	0	0	0	0	396.674	-0.899966	-0.900343	-2.20771	-0.354526	-0.354526	11	-0.0984795	0	0.0984795	0.000000000000000E+000	0.0984795	0.0000000E+000	0.000000000000000E+000	0.0019877
2	0	0	0	0	0	0	401.274	-0.899966	-0.900382	-2.20623	-0.364721	-0.364721	11	-0.101311	0	0.101311	0.000000000000000E+000	0.101311	0.0000000E+000	0.000000000000000E+000	0.00198645
2	0	0	0	0	0	0	405.874	-0.899966	-0.900401	-2.20706	-0.374902	-0.374902	11	-0.104139	0	0.104139	0.000000000000000E+000	0.104139	0.0000000E+000	0.000000000000000E+000	0.00198724
2	0	0	0	0	0	0	410.474	-0.899966	-0.900458	-2.21033	-0.385089	-0.385089	11	-0.106969	0	0.106969	0.000000000000000E+000	0.106969	0.0000000E+000	0.000000000000000E+000	0.00199031
[...]
2	0	0	0	0	0	0	451.874	-0.899966	-0.900401	-3.17684	-0.496284	-0.496284	11	-0.137857	0	0.137857	0.000000000000000E+000	0.137857	0.0000000E+000	0.000000000000000E+000	0.00286042
2	0	0	0	0	0	0	456.474	-0.899966	-0.900362	-3.16782	-0.510859	-0.510859	11	-0.141905	0	0.141905	0.000000000000000E+000	0.141905	0.0000000E+000	0.000000000000000E+000	0.00285219
2	0	0	0	0	0	0	461.074	-0.899966	-0.900401	-3.1522	-0.525417	-0.525417	11	-0.145949	0	0.145949	0.000000000000000E+000	0.145949	0.0000000E+000	0.000000000000000E+000	0.00283824
2	0	0	0	0	0	0	465.674	-0.899966	-0.900401	-3.40934	-0.540753	-0.540753	11	-0.150209	0	0.150209	0.000000000000000E+000	0.150209	0.0000000E+000	0.000000000000000E+000	0.00306977
2	0	0	0	0	0	0	470.274	-0.899966	-0.900382	-3.39973	-0.556403	-0.556403	11	-0.154556	0	0.154556	0.000000000000000E+000	0.154556	0.0000000E+000	0.000000000000000E+000	0.00306106
2	0	0	0	0	0	0	474.874	-0.899966	-0.90042	-3.38948	-0.572022	-0.572022	11	-0.158895	0	0.158895	0.000000000000000E+000	0.158895	0.0000000E+000	0.000000000000000E+000	0.00305196
2	0	0	0	0	0	0	479.474	-0.899966	-0.900267	-3.48449	-0.588021	-0.588021	11	-0.163339	0	0.163339	0.000000000000000E+000	0.163339	0.0000000E+000	0.000000000000000E+000	0.00313697
2	0	0	0	0	0	0	484.074	-0.899966	-0.900286	-3.47437	-0.60403	-0.60403	11	-0.167786	0	0.167786	0.000000000000000E+000	0.167786	0.0000000E+000	0.000000000000000E+000	0.00312792
2	0	0	0	0	0	0	488.674	-0.899966	-0.900095	-3.5806	-0.620307	-0.620307	11	-0.172308	0	0.172308	0.000000000000000E+000	0.172308	0.0000000E+000	0.000000000000000E+000	0.00322288
2	0	0	0	0	0	0	493.274	-0.899966	-0.900496	-3.57995	-0.636756	-0.636756	11	-0.176877	0	0.176877	0.000000000000000E+000	0.176877	0.0000000E+000	0.000000000000000E+000	0.00322373
2	0	0	0	0	0	0	497.874	-0.899966	-0.900573	-3.56721	-0.653186	-0.653186	11	-0.181441	0	0.181441	0.000000000000000E+000	0.181441	0.0000000E+000	0.000000000000000E+000	0.00321253
2	0	0	0	0	0	0	502.474	-0.899966	-0.900611	-3.55652	-0.669575	-0.669575	11	-0.185993	0	0.185993	0.000000000000000E+000	0.185993	0.0000000E+000	0.000000000000000E+000	0.00320304
2	0	0	0	0	0	0	507.074	-0.899966	-0.900305	-3.55743	-0.685946	-0.685946	11	-0.190541	0	0.190541	0.000000000000000E+000	0.190541	0.0000000E+000	0.000000000000000E+000	0.00320277
2	0	0	0	0	0	0	511.674	-0.899966	-0.900458	-3.55663	-0.702299	-0.702299	11	-0.195083	0	0.195083	0.000000000000000E+000	0.195083	0.0000000E+000	0.000000000000000E+000	0.0032026
2	0	0	0	0	0	0	516.274	-0.899966	-0.900573	-3.54682	-0.718623	-0.718623	11	-0.199618	0	0.199618	0.000000000000000E+000	0.199618	0.0000000E+000	0.000000000000000E+000	0.00319417
2	0	0	0	0	0	0	520.874	-0.899966	-0.900553	-3.60561	-0.73521	-0.73521	11	-0.204225	0	0.204225	0.000000000000000E+000	0.204225	0.0000000E+000	0.000000000000000E+000	0.00324705
2	0	0	0	0	0	0	525.474	-0.899966	-0.900362	-3.58747	-0.751743	-0.751743	11	-0.208818	0	0.208818	0.000000000000000E+000	0.208818	0.0000000E+000	0.000000000000000E+000	0.00323002
2	0	0	0	0	0	0	530.074	-0.899966	-0.90042	-3.58034	-0.768224	-0.768224	11	-0.213396	0	0.213396	0.000000000000000E+000	0.213396	0.0000000E+000	0.000000000000000E+000	0.00322381
2	0	0	0	0	0	0	534.674	-0.899966	-0.900305	-3.491	-0.784642	-0.784642	11	-0.217956	0	0.217956	0.000000000000000E+000	0.217956	0.0000000E+000	0.000000000000000E+000	0.00314296
2	0	0	0	0	0	0	538.378	-0.899966	-0.900362	-3.49506	-0.797629	-0.797629	11	-0.221564	0	0.221564	0.000000000000000E+000	0.221564	0.0000000E+000	0.000000000000000E+000	0.00314682